,time,acce_x,acce_y,acce_z,acce_glob_x,acce_glob_y,acce_glob_z,gyro_x,gyro_y,gyro_z,gyro_glob_x,gyro_glob_y,gyro_glob_z,ori_w,ori_x,ori_y,ori_z,pos_x,pos_y
0,2165570004315855,1.3181,9.957458,0.624664,9.017828,-0.188355,-4.46339,0.055405,-0.049377,0.022079,-0.007431,0.018045,0.07493,0.623667,0.621973,0.280852,0.381197,-0.000163,-0.010022
1,2165570009259703,1.151093,9.92514,0.664169,8.902816,-0.127555,-4.582393,0.049011,-0.050446,0.021011,-0.011954,0.017882,0.070183,0.623616,0.622105,0.280816,0.381093,-0.000204,-0.01013
2,2165570014203551,1.170258,9.879654,0.62886,8.870448,-0.163653,-4.545405,0.043686,-0.046188,0.023148,-0.011101,0.02041,0.063544,0.623556,0.622236,0.280776,0.381004,-0.000243,-0.010235
3,2165570019147398,1.192398,9.915558,0.603729,8.908142,-0.195654,-4.55097,0.037292,-0.044052,0.028473,-0.012193,0.026363,0.057431,0.623492,0.622369,0.280723,0.380932,-0.000281,-0.01034
4,2165570024091246,1.225311,9.868286,0.676147,8.895368,-0.126884,-4.494212,0.031967,-0.042984,0.028473,-0.014238,0.026972,0.05244,0.623448,0.622476,0.280647,0.380885,-0.000319,-0.010443
5,2165570029035094,1.248062,9.868286,0.76413,8.91802,-0.044284,-4.471175,0.033035,-0.038727,0.027405,-0.010259,0.02551,0.050854,0.62342,0.622558,0.280561,0.380859,-0.000356,-0.010545
6,2165570033948424,1.255249,9.905991,0.765335,8.952545,-0.048231,-4.487726,0.036224,-0.032333,0.028473,-0.003083,0.025755,0.049955,0.623382,0.622639,0.280488,0.380844,-0.000393,-0.010647
7,2165570038892271,1.229507,9.911377,0.726425,8.937365,-0.085703,-4.515621,0.039429,-0.024872,0.029526,0.004977,0.025913,0.048464,0.623327,0.622726,0.280439,0.380827,-0.00043,-0.010747
8,2165570043836119,1.222931,9.910782,0.701279,8.929704,-0.111641,-4.523152,0.040482,-0.018478,0.029526,0.010835,0.025368,0.045728,0.623261,0.622815,0.280407,0.380814,-0.000467,-0.010846
9,2165570048779967,1.242081,9.931122,0.70488,8.957163,-0.114008,-4.519209,0.044754,-0.015289,0.031662,0.016097,0.026744,0.04759,0.623184,0.622909,0.280375,0.380811,-0.000503,-0.010944
10,2165570053723814,1.213348,9.915558,0.622879,8.917885,-0.19284,-4.540117,0.047943,-0.013153,0.030594,0.019493,0.025157,0.048936,0.623085,0.623023,0.28037,0.380789,-0.000541,-0.011044
11,2165570058667662,1.231903,9.840744,0.592346,8.862452,-0.223115,-4.485079,0.047943,-0.007828,0.033798,0.024287,0.027985,0.046142,0.622971,0.623144,0.280363,0.380783,-0.000579,-0.011144
12,2165570063580992,1.307922,9.847336,0.591156,8.909512,-0.237332,-4.426549,0.045807,-0.00676,0.03273,0.02386,0.027131,0.043702,0.62285,0.623268,0.280337,0.380796,-0.000618,-0.011247
13,2165570068524840,1.35939,9.820389,0.617493,8.918774,-0.219169,-4.367682,0.044754,-0.008896,0.030594,0.021259,0.025296,0.043889,0.622733,0.623391,0.280291,0.38082,-0.000656,-0.011347
14,2165570073468687,1.332458,9.841339,0.610306,8.919951,-0.227344,-4.40259,0.046875,-0.009964,0.028473,0.021292,0.023012,0.046091,0.62262,0.623513,0.280259,0.38083,-0.000693,-0.011449
15,2165570078443053,1.278595,9.871872,0.557037,8.908165,-0.278311,-4.468368,0.047943,-0.016357,0.029526,0.016758,0.024366,0.050629,0.622503,0.623652,0.280239,0.380809,-0.00073,-0.011551
16,2165570083356383,1.23848,9.910782,0.618088,8.925137,-0.21771,-4.520378,0.046875,-0.024872,0.028473,0.009031,0.024048,0.054468,0.622417,0.623771,0.280213,0.380771,-0.000766,-0.011655
17,2165570088300230,1.292358,9.939499,0.683929,8.986049,-0.163588,-4.489539,0.045807,-0.037659,0.029526,-0.001942,0.026107,0.060852,0.622351,0.623891,0.280141,0.380738,-0.000802,-0.011757
18,2165570093244078,1.31929,9.94429,0.727615,9.009354,-0.126461,-4.469278,0.049011,-0.047241,0.029526,-0.00804,0.026378,0.068885,0.622293,0.624015,0.280045,0.380699,-0.000838,-0.011861
19,2165570098157408,1.339645,9.96405,0.700684,9.032293,-0.159597,-4.467671,0.049011,-0.052567,0.028473,-0.012535,0.025717,0.071816,0.622232,0.624151,0.279942,0.380651,-0.000873,-0.011964
20,2165570103131773,1.328262,9.933517,0.671356,8.995848,-0.187545,-4.464238,0.049011,-0.056839,0.023148,-0.016702,0.02076,0.073883,0.622173,0.624296,0.279845,0.380582,-0.000907,-0.012067
21,2165570108045103,1.292953,9.907181,0.643234,8.949694,-0.211267,-4.482852,0.043686,-0.060028,0.023148,-0.022251,0.021659,0.071298,0.622124,0.624435,0.279752,0.380501,-0.00094,-0.01217
22,2165570112988951,1.268417,9.866486,0.634842,8.9002,-0.215666,-4.483234,0.040482,-0.060028,0.0242,-0.023869,0.023114,0.06873,0.622081,0.62457,0.27966,0.380418,-0.000972,-0.012274
23,2165570117902281,1.28038,9.88205,0.650406,8.920417,-0.204685,-4.483486,0.036224,-0.053635,0.0242,-0.02095,0.02321,0.061619,0.622043,0.624688,0.27957,0.380353,-0.001003,-0.012378
24,2165570122876646,1.301926,9.878448,0.659393,8.929515,-0.199927,-4.465129,0.028763,-0.04512,0.022079,-0.018339,0.021449,0.05054,0.622012,0.624786,0.279481,0.380308,-0.001034,-0.012483
25,2165570127820494,1.302536,9.892227,0.594147,8.932049,-0.267181,-4.478048,0.023438,-0.03447,0.017807,-0.01307,0.017142,0.039874,0.62197,0.62488,0.27942,0.380267,-0.001063,-0.012588
26,2165570132733824,1.296539,9.871277,0.510941,8.900313,-0.349014,-4.47737,0.013855,-0.021683,0.017807,-0.007866,0.017436,0.024765,0.621915,0.624968,0.279381,0.380241,-0.001092,-0.012695
27,2165570137677672,1.294754,9.866486,0.390045,8.87961,-0.46983,-4.484169,0.001068,-0.007828,0.015686,-0.003837,0.015946,0.006282,0.621844,0.625054,0.27937,0.380223,-0.00112,-0.012802
28,2165570142621519,1.306122,9.859299,0.358322,8.875799,-0.503618,-4.472897,-0.010651,-0.000381,0.011429,-0.00476,0.012655,-0.007836,0.62178,0.625123,0.279368,0.380217,-0.001149,-0.012912
29,2165570147565367,1.33844,9.895218,0.40979,8.929742,-0.460288,-4.463476,-0.021301,0.001755,0.007156,-0.009458,0.00959,-0.018072,0.621743,0.62516,0.279351,0.380229,-0.001177,-0.013021
30,2165570152509215,1.328873,9.936508,0.474442,8.966696,-0.398498,-4.490523,-0.028763,0.006012,0.005035,-0.010369,0.008112,-0.026748,0.621735,0.62516,0.279333,0.380255,-0.001206,-0.013132
31,2165570157453062,1.310318,9.936508,0.530701,8.963749,-0.340406,-4.502003,-0.03302,0.009216,0.001831,-0.010506,0.005243,-0.032261,0.62175,0.625132,0.279319,0.380286,-0.001235,-0.013244
32,2165570162396910,1.261826,9.926331,0.620483,8.940243,-0.243944,-4.530082,-0.034088,0.011337,0.000763,-0.00949,0.004173,-0.034404,0.621796,0.625068,0.27931,0.380322,-0.001266,-0.013367
33,2165570167340758,1.193588,9.996964,0.688126,8.969415,-0.171898,-4.621421,-0.031952,0.009216,0.000763,-0.010047,0.004064,-0.031448,0.621867,0.624983,0.279314,0.380344,-0.001297,-0.013489
34,2165570172284605,1.213943,9.949081,0.72702,8.946507,-0.13105,-4.57488,-0.02449,0.004959,-0.001358,-0.009679,0.001345,-0.023037,0.621937,0.624905,0.279309,0.380363,-0.001329,-0.013612
35,2165570177197935,1.221725,9.96106,0.739594,8.962398,-0.119139,-4.574219,-0.015976,0.002823,-0.00029,-0.006576,0.001498,-0.014758,0.621995,0.62484,0.279303,0.380377,-0.001361,-0.013737
36,2165570182141783,1.214539,9.977219,0.667175,8.962503,-0.190164,-4.593743,-0.007446,0.000687,-0.001358,-0.003738,-0.000468,-0.0066,0.622026,0.624809,0.279316,0.380368,-0.001399,-0.013833
37,2165570187085631,1.224121,9.959854,0.579178,8.942309,-0.276923,-4.581585,-0.002121,-0.00676,-0.001358,-0.006908,-0.000607,0.001987,0.622023,0.624814,0.279342,0.380345,-0.001437,-0.013931
38,2165570192029478,1.19838,9.934723,0.530106,8.900764,-0.320332,-4.592355,-0.001053,-0.015289,0.000763,-0.013057,0.001958,0.007818,0.622022,0.624845,0.279353,0.380289,-0.001475,-0.014029
39,2165570196973326,1.166061,9.891022,0.514542,8.844378,-0.328242,-4.596288,-0.002121,-0.023804,-0.00029,-0.020784,0.001644,0.011685,0.622029,0.624882,0.27936,0.38021,-0.001513,-0.014129
40,2165570201917174,1.166656,9.874268,0.460068,8.8233,-0.380798,-4.591106,-0.007446,-0.030197,0.000763,-0.028858,0.003792,0.010986,0.622035,0.624932,0.279357,0.380121,-0.00155,-0.014228
41,2165570206861021,1.241486,9.877258,0.534897,8.875962,-0.316032,-4.528228,-0.011719,-0.037659,-0.00029,-0.037496,0.003801,0.011629,0.622061,0.62497,0.279309,0.38005,-0.001587,-0.014326
42,2165570211774351,1.242081,9.900604,0.616287,8.904928,-0.23662,-4.537722,-0.015976,-0.042984,-0.00029,-0.044234,0.004698,0.011147,0.622118,0.624985,0.27924,0.379985,-0.001624,-0.014424
43,2165570216718199,1.187607,9.919159,0.668365,8.895621,-0.178493,-4.591606,-0.01384,-0.044052,-0.00029,-0.043923,0.004504,0.013517,0.622192,0.624983,0.27918,0.37991,-0.00166,-0.014522
44,2165570221662047,1.201981,9.935913,0.737198,8.925271,-0.111958,-4.586686,-0.015976,-0.041916,-0.00029,-0.043352,0.004615,0.010562,0.622284,0.624959,0.279109,0.379852,-0.001696,-0.01462
45,2165570226605894,1.210358,9.92215,0.694107,8.912427,-0.153586,-4.576129,-0.015976,-0.033401,-0.00029,-0.036356,0.004018,0.00575,0.622357,0.62494,0.279054,0.379804,-0.001733,-0.014718
46,2165570231519224,1.216339,9.941299,0.66777,8.927659,-0.180711,-4.584663,-0.019165,-0.022751,-0.00029,-0.029379,0.003671,-0.002895,0.622419,0.624915,0.279015,0.379772,-0.00177,-0.014816
47,2165570236463072,1.285172,9.958664,0.818604,8.999137,-0.039962,-4.528879,-0.019165,-0.014221,-0.002426,-0.022644,0.000966,-0.007856,0.622505,0.624848,0.278954,0.379786,-0.001807,-0.014916
48,2165570241376402,1.33725,9.975418,0.884445,9.050203,0.018482,-4.491418,-0.012772,-0.004639,-0.002426,-0.011219,-0.00049,-0.008026,0.622582,0.624771,0.278892,0.379831,-0.001846,-0.015016
49,2165570246320250,1.29715,9.978409,0.870682,9.028731,0.010635,-4.526742,-0.001053,0.006012,-0.004562,0.003772,-0.0048,-0.00456,0.622643,0.624704,0.278866,0.379862,-0.001885,-0.015117
50,2165570251264097,1.275589,9.970627,0.849731,9.008115,-0.005901,-4.540534,0.004272,0.01561,-0.005615,0.014483,-0.007167,-0.005684,0.622682,0.624635,0.278878,0.379902,-0.001924,-0.015218
51,2165570256207945,1.257645,9.98439,0.785675,9.001933,-0.067247,-4.565949,0.010666,0.025192,-0.006683,0.025774,-0.009681,-0.005918,0.622693,0.624582,0.278926,0.379937,-0.001966,-0.015323
52,2165570261151793,1.281586,9.963455,0.718643,8.990241,-0.134873,-4.537269,0.013855,0.031586,-0.006683,0.032801,-0.010519,-0.00691,0.622674,0.624549,0.278988,0.379976,-0.002007,-0.015428
53,2165570266065123,1.283371,9.931122,0.643234,8.955796,-0.207573,-4.520898,0.013855,0.032654,-0.006683,0.03368,-0.010592,-0.007508,0.622635,0.624536,0.279059,0.380008,-0.002046,-0.015523
54,2165570271008971,1.246262,9.92334,0.582169,8.921786,-0.262846,-4.549444,0.009598,0.033707,-0.005615,0.032319,-0.009076,-0.011529,0.622592,0.624528,0.279144,0.38003,-0.002085,-0.015619
55,2165570275952818,1.264221,9.917358,0.598343,8.929451,-0.248702,-4.529154,0.006393,0.025192,-0.004562,0.023676,-0.007048,-0.009278,0.622559,0.624522,0.279204,0.380049,-0.002125,-0.015716
56,2165570280896666,1.252258,9.916763,0.585175,8.921001,-0.260141,-4.538811,0.007462,0.01561,-0.006683,0.016125,-0.008619,-0.003115,0.622532,0.624527,0.279259,0.380045,-0.002165,-0.015813
57,2165570285840513,1.243271,9.920349,0.577393,8.918298,-0.26686,-4.548102,0.00853,0.014542,-0.007751,0.015705,-0.009735,-0.0017,0.622505,0.624535,0.279317,0.380034,-0.002205,-0.015912
58,2165570290753844,1.249252,9.904785,0.547455,8.905229,-0.296143,-4.535878,0.006393,0.010284,-0.007751,0.011019,-0.009175,-0.001049,0.622476,0.624552,0.279368,0.380015,-0.002253,-0.016026
59,2165570295697691,1.236694,9.898804,0.544464,8.892963,-0.297115,-4.543051,0.006393,0.001755,-0.006683,0.004144,-0.007529,0.003841,0.622455,0.624579,0.279405,0.37998,-0.002302,-0.016141
60,2165570300641539,1.267822,9.891022,0.534897,8.902593,-0.310145,-4.5137,0.007462,0.000687,-0.006683,0.00386,-0.007587,0.005324,0.622425,0.624613,0.279435,0.37995,-0.002351,-0.016257
61,2165570305585387,1.241486,9.832962,0.5289,8.839472,-0.308868,-4.502961,0.003204,-0.002502,-0.006683,-0.001125,-0.006839,0.003625,0.622403,0.62464,0.279467,0.379919,-0.002401,-0.016372
62,2165570310529234,1.195389,9.840744,0.580978,8.826884,-0.251764,-4.541967,0.005341,-0.005707,-0.005615,-0.002438,-0.005825,0.007263,0.622396,0.624651,0.279504,0.379884,-0.002451,-0.016487
63,2165570315473082,1.264221,9.88504,0.655792,8.910749,-0.18919,-4.506098,0.005341,-0.011032,-0.002426,-0.006411,-0.002301,0.010475,0.622403,0.624661,0.279493,0.379863,-0.0025,-0.016602
64,2165570320386412,1.272598,9.868286,0.672562,8.903529,-0.172515,-4.489139,0.010666,-0.011032,-0.002426,-0.003454,-0.002959,0.014855,0.622406,0.624676,0.279482,0.379843,-0.002549,-0.016717
65,2165570325330260,1.250458,9.908386,0.699493,8.927372,-0.145868,-4.528783,0.020248,-0.0121,-0.002426,0.00099,-0.004069,0.02334,0.622404,0.624697,0.279482,0.379812,-0.002599,-0.016831
66,2165570330274107,1.261826,9.916168,0.649216,8.933458,-0.197981,-4.527509,0.021317,-0.0121,0.000763,0.001989,-0.001042,0.024421,0.622384,0.624736,0.279482,0.379781,-0.002649,-0.016946
67,2165570335217955,1.243271,9.910782,0.551056,8.906073,-0.293117,-4.546314,0.023438,-0.008896,-0.00029,0.005668,-0.002564,0.024287,0.622338,0.624799,0.279508,0.379733,-0.0027,-0.017059
68,2165570340161803,1.245667,9.935913,0.507355,8.922316,-0.339204,-4.561655,0.021317,-0.007828,0.000763,0.005502,-0.001329,0.022005,0.622283,0.62487,0.279538,0.379684,-0.002751,-0.017173
69,2165570345075133,1.254044,9.934113,0.525909,8.927618,-0.322394,-4.552949,0.013855,-0.007828,0.001831,0.001494,0.00065,0.015935,0.622242,0.624926,0.279554,0.379646,-0.002802,-0.017286
70,2165570350018980,1.27919,9.928726,0.537888,8.938489,-0.313995,-4.528804,0.010666,-0.00676,0.001831,0.000601,0.00097,0.012709,0.622205,0.624976,0.27956,0.379621,-0.002853,-0.017396
71,2165570354962828,1.248657,9.893417,0.56662,8.896117,-0.27967,-4.532205,0.005341,-0.005707,0.001831,-0.001492,0.001553,0.007734,0.622183,0.625001,0.279573,0.379607,-0.002905,-0.017509
72,2165570359876158,1.271408,9.915558,0.589355,8.929806,-0.261745,-4.524636,0.003204,-0.005707,-0.00029,-0.002947,-0.000284,0.005844,0.622168,0.625018,0.27958,0.379599,-0.003011,-0.017729
73,2165570364850523,1.275589,9.953278,0.629456,8.968199,-0.225195,-4.540026,0.002136,-0.004639,-0.001358,-0.002798,-0.001284,0.004295,0.622165,0.625021,0.279583,0.379596,-0.003011,-0.017729
74,2165570369794371,1.272003,9.973618,0.598343,8.978972,-0.25693,-4.556423,0.001068,-0.001434,-0.003494,-0.001028,-0.003491,0.001471,0.622159,0.625028,0.279594,0.379585,-0.003064,-0.017835
75,2165570374738219,1.250458,9.950882,0.555832,8.942953,-0.294567,-4.563923,-0.005325,0.002823,-0.004562,-0.001215,-0.004059,-0.00626,0.622157,0.625032,0.279613,0.379568,-0.003116,-0.017935
76,2165570379682066,1.274399,9.909576,0.518127,8.917592,-0.331886,-4.523147,-0.01384,0.003891,-0.005615,-0.005201,-0.00413,-0.013932,0.622154,0.625034,0.279626,0.379562,-0.003168,-0.018035
77,2165570384625914,1.252258,9.877853,0.564819,8.885251,-0.280158,-4.520295,-0.021301,0.006012,-0.005615,-0.007601,-0.003361,-0.021268,0.622175,0.625006,0.279634,0.379567,-0.00322,-0.018134
78,2165570389539244,1.248062,9.88504,0.679733,8.903324,-0.165408,-4.520772,-0.020233,-0.003571,-0.004562,-0.014751,-0.001783,-0.014905,0.622229,0.624958,0.279614,0.379573,-0.003283,-0.018256
79,2165570394452574,1.25824,9.90239,0.749771,8.931991,-0.09743,-4.518052,-0.014908,-0.00676,-0.005615,-0.014547,-0.003258,-0.008789,0.622293,0.624903,0.279584,0.37958,-0.003347,-0.018381
80,2165570399396422,1.213348,9.910172,0.736008,8.91174,-0.10476,-4.560201,-0.011719,-0.001434,-0.005615,-0.008398,-0.004018,-0.009179,0.622352,0.624846,0.27958,0.37958,-0.003412,-0.01851
81,2165570404340269,1.269012,9.940704,0.64502,8.956296,-0.203368,-4.537343,-0.009583,0.003891,-0.003494,-0.002567,-0.002548,-0.010301,0.622373,0.624823,0.279576,0.379586,-0.003477,-0.018643
82,2165570409284117,1.330063,9.9431,0.673157,8.995746,-0.183092,-4.486683,-0.009583,0.004959,-0.003494,-0.001689,-0.00262,-0.010905,0.622392,0.6248,0.279552,0.379609,-0.003543,-0.01878
83,2165570414227965,1.322281,9.928726,0.678543,8.980324,-0.175568,-4.484559,-0.007446,0.003891,-0.006683,-0.001783,-0.005966,-0.008745,0.622413,0.624776,0.279536,0.379626,-0.003609,-0.018921
84,2165570419171812,1.316895,9.941299,0.602524,8.978057,-0.251106,-4.500904,-0.002121,0.001755,-0.007751,-0.000715,-0.007533,-0.003225,0.622409,0.624781,0.279538,0.379624,-0.003674,-0.019066
85,2165570424085142,1.330658,9.914963,0.495987,8.950536,-0.356935,-4.481457,-0.004257,0.003891,-0.00882,-0.000282,-0.008476,-0.006256,0.62238,0.624812,0.279549,0.379611,-0.00374,-0.019213
86,2165570428998472,1.293549,9.903595,0.465454,8.916729,-0.381946,-4.507465,-0.010651,0.002823,-0.010956,-0.004981,-0.00973,-0.011044,0.62236,0.624835,0.279573,0.37959,-0.003805,-0.019362
87,2165570433972838,1.274399,9.919754,0.533691,8.927888,-0.312773,-4.528295,-0.01384,-0.003571,-0.010956,-0.012007,-0.008897,-0.01005,0.622369,0.624837,0.279582,0.379565,-0.003871,-0.019515
88,2165570438916685,1.243866,9.899399,0.635452,8.90687,-0.20592,-4.535886,-0.012772,-0.008896,-0.010956,-0.01579,-0.008662,-0.00616,0.62241,0.624813,0.279577,0.37954,-0.003937,-0.019668
89,2165570443860533,1.192398,9.889221,0.642624,8.870642,-0.190614,-4.572405,-0.010651,-0.009964,-0.00882,-0.015219,-0.006736,-0.003678,0.622455,0.624788,0.279583,0.379504,-0.004004,-0.019821
90,2165570448804381,1.172638,9.892227,0.630661,8.860488,-0.199085,-4.591396,-0.010651,-0.007828,-0.005615,-0.013059,-0.003711,-0.004684,0.622495,0.624763,0.279594,0.37947,-0.004071,-0.019972
91,2165570453748228,1.209152,9.928131,0.637238,8.910964,-0.198654,-4.581593,-0.011719,-0.007828,-0.004562,-0.01352,-0.002537,-0.005495,0.622532,0.624741,0.279592,0.379447,-0.004137,-0.020118
92,2165570458692076,1.22113,9.950287,0.612106,8.932437,-0.225793,-4.58635,-0.012772,-0.011032,-0.004562,-0.016738,-0.002189,-0.004548,0.622565,0.624729,0.279586,0.379418,-0.004209,-0.02027
93,2165570463635924,1.24028,9.92514,0.615097,8.922543,-0.222898,-4.556692,-0.011719,-0.011032,-0.004562,-0.016153,-0.002319,-0.003681,0.622594,0.62472,0.279573,0.379394,-0.004278,-0.020413
94,2165570468488219,1.224121,9.90239,0.640839,8.897919,-0.193132,-4.5559,-0.011719,-0.009964,-0.004562,-0.015276,-0.002392,-0.004285,0.62263,0.624702,0.279563,0.379373,-0.004351,-0.02056
95,2165570473401549,1.22113,9.903595,0.715652,8.906436,-0.117701,-4.554774,-0.012772,-0.0121,-0.004562,-0.017616,-0.002117,-0.003942,0.622688,0.624663,0.279539,0.379359,-0.004424,-0.020701
96,2165570478436949,1.237885,9.920349,0.701889,8.927555,-0.133751,-4.551845,-0.009583,-0.0121,-0.003494,-0.015709,-0.001453,-0.001252,0.622735,0.624636,0.279514,0.379346,-0.004497,-0.020839
97,2165570483411314,1.245071,9.918564,0.559433,8.91217,-0.275436,-4.553953,-0.009583,-0.005707,-0.002426,-0.010322,-0.000832,-0.004802,0.622733,0.624639,0.279525,0.379336,-0.004569,-0.020973
98,2165570488324644,1.242081,9.910782,0.527115,8.899859,-0.306418,-4.554431,-0.014908,-0.00676,-0.001358,-0.014014,0.000953,-0.008515,0.622738,0.624649,0.279521,0.379314,-0.004626,-0.021067
99,2165570493268492,1.21933,9.908386,0.667175,8.902641,-0.163893,-4.563352,-0.019165,-0.011032,-0.001358,-0.019891,0.001769,-0.009595,0.62279,0.624615,0.279495,0.379304,-0.004683,-0.021161
100,2165570498212340,1.187607,9.910172,0.768921,8.899063,-0.057904,-4.584383,-0.017044,-0.0121,-0.001358,-0.019589,0.00158,-0.007246,0.622869,0.624554,0.279465,0.379297,-0.00474,-0.021256
101,2165570503156187,1.206757,9.927536,0.739594,8.92018,-0.089553,-4.58059,-0.010651,-0.007828,0.001831,-0.012124,0.003659,-0.004206,0.622922,0.624512,0.279442,0.379297,-0.004796,-0.021351
102,2165570508100035,1.215744,9.910172,0.656403,8.900482,-0.171401,-4.568624,-0.007446,-0.004639,0.001831,-0.007722,0.003047,-0.003377,0.62294,0.624492,0.279442,0.379298,-0.004851,-0.021446
103,2165570513043883,1.22113,9.889221,0.616898,8.881327,-0.20952,-4.554829,-0.006378,-0.003571,0.000763,-0.006385,0.001785,-0.003172,0.622947,0.624485,0.279448,0.379294,-0.004906,-0.021543
104,2165570517957213,1.249252,9.883835,0.688721,8.901596,-0.141163,-4.524028,-0.007446,-0.007828,-0.00029,-0.010608,0.001163,-0.001707,0.62297,0.62446,0.279437,0.379306,-0.004962,-0.021641
105,2165570522901060,1.246872,9.904785,0.717453,8.921134,-0.113432,-4.535928,-0.004257,-0.009964,-0.00029,-0.01059,0.000913,0.002123,0.622994,0.624433,0.279427,0.379318,-0.005017,-0.02174
106,2165570527844908,1.261826,9.92334,0.722839,8.945401,-0.110849,-4.533752,0.001068,-0.011032,-0.003494,-0.008909,-0.002846,0.006899,0.623013,0.624413,0.279422,0.379324,-0.005072,-0.02184
107,2165570532788756,1.293549,9.916763,0.677338,8.951635,-0.159425,-4.507445,0.001068,-0.013153,-0.002426,-0.010517,-0.001645,0.008168,0.623026,0.62442,0.279392,0.379313,-0.005128,-0.02194
108,2165570537732603,1.287567,9.919754,0.636047,8.945562,-0.199929,-4.516718,0.001068,-0.009964,-0.003494,-0.008031,-0.002918,0.006295,0.623019,0.624427,0.279391,0.379313,-0.005183,-0.022041
109,2165570542676451,1.305527,9.913162,0.651001,8.952007,-0.187059,-4.497287,0.0,-0.00676,-0.004562,-0.006127,-0.00406,0.003535,0.623017,0.624429,0.279384,0.379319,-0.00524,-0.022143
110,2165570547589781,1.308517,9.940704,0.674347,8.979235,-0.16615,-4.508913,0.0,-0.00676,-0.006683,-0.006393,-0.006159,0.003399,0.623022,0.624423,0.279378,0.379325,-0.005295,-0.022244
111,2165570552533629,1.274399,9.938309,0.702484,8.961852,-0.133611,-4.533754,0.0,-0.007828,-0.005615,-0.007136,-0.00503,0.004071,0.623037,0.624407,0.279375,0.379329,-0.00535,-0.022346
112,2165570557477476,1.228317,9.895813,0.683929,8.89902,-0.142843,-4.548698,0.001068,-0.003571,-0.005615,-0.003045,-0.00545,0.002539,0.623054,0.62439,0.279387,0.37932,-0.005405,-0.02245
113,2165570562421324,1.249252,9.935913,0.603119,8.933463,-0.228015,-4.559371,-0.002121,-0.001434,-0.003494,-0.002796,-0.0031,-0.001155,0.623051,0.624394,0.2794,0.379308,-0.005513,-0.02266
114,2165570567365172,1.289963,9.941299,0.503769,8.948024,-0.332126,-4.535383,-0.006378,0.002823,-0.005615,-0.001932,-0.004961,-0.007199,0.623027,0.624421,0.279414,0.379293,-0.005513,-0.02266
115,2165570572309019,1.310318,9.929932,0.507355,8.950423,-0.33063,-4.51204,-0.01384,0.001755,-0.006683,-0.007094,-0.005024,-0.012796,0.623012,0.624438,0.279417,0.379288,-0.005566,-0.022765
116,2165570577222349,1.287567,9.915558,0.56662,8.933305,-0.267924,-4.519001,-0.020233,-0.002502,-0.006683,-0.014147,-0.003945,-0.01564,0.623028,0.624429,0.279406,0.379284,-0.005619,-0.022872
117,2165570582135679,1.286972,9.897614,0.614502,8.924097,-0.218644,-4.506579,-0.022369,-0.005707,-0.009888,-0.018371,-0.006637,-0.015786,0.623064,0.624405,0.279386,0.379279,-0.005673,-0.02298
118,2165570587079527,1.274994,9.894608,0.64801,8.919026,-0.183004,-4.512891,-0.019165,-0.00676,-0.010956,-0.017588,-0.008019,-0.012625,0.623107,0.624375,0.279368,0.379271,-0.005716,-0.023094
119,2165570592023375,1.283981,9.917358,0.667175,8.944972,-0.165798,-4.517465,-0.022369,-0.00676,-0.010956,-0.01937,-0.007621,-0.015259,0.623158,0.624336,0.279343,0.379269,-0.005759,-0.023208
120,2165570596967222,1.312714,9.895218,0.601929,8.934406,-0.231995,-4.485915,-0.02449,-0.00676,-0.012009,-0.020683,-0.008399,-0.017069,0.623193,0.624316,0.279317,0.379265,-0.005803,-0.023324
121,2165570601911070,1.272598,9.868881,0.588165,8.888496,-0.2381,-4.505362,-0.02449,-0.009964,-0.014145,-0.023583,-0.010298,-0.015392,0.623234,0.624296,0.279301,0.379243,-0.005847,-0.023441
122,2165570606854918,1.186417,9.843735,0.654007,8.827984,-0.158847,-4.55806,-0.026627,-0.008896,-0.014145,-0.023894,-0.010106,-0.017753,0.623306,0.624243,0.279299,0.379213,-0.005892,-0.02356
123,2165570611798765,1.195984,9.867081,0.642029,8.850839,-0.171804,-4.564529,-0.028763,-0.007828,-0.014145,-0.024205,-0.009912,-0.020113,0.623376,0.62419,0.279297,0.379186,-0.005938,-0.023681
124,2165570616742613,1.192398,9.894608,0.603119,8.866461,-0.210234,-4.585908,-0.029816,-0.00676,-0.013077,-0.023779,-0.008796,-0.021514,0.623436,0.624147,0.279301,0.379156,-0.005985,-0.023802
125,2165570621686461,1.193588,9.899399,0.568405,8.866525,-0.2437,-4.590348,-0.035141,-0.008896,-0.010956,-0.028233,-0.005893,-0.024541,0.623495,0.624109,0.279297,0.379125,-0.006033,-0.023925
126,2165570626599791,1.170853,9.890427,0.592346,8.849275,-0.214865,-4.602871,-0.035141,-0.011032,-0.013077,-0.030252,-0.007852,-0.023468,0.623565,0.624062,0.279297,0.379086,-0.006081,-0.024048
127,2165570631543638,1.163666,9.870667,0.658188,8.836925,-0.145832,-4.593993,-0.031952,-0.016357,-0.006683,-0.032054,-0.001564,-0.017413,0.623646,0.624011,0.279273,0.379054,-0.00613,-0.024172
128,2165570636487486,1.19838,9.86528,0.695297,8.856048,-0.11182,-4.560823,-0.028763,-0.019547,-0.002426,-0.032369,0.002466,-0.012705,0.623723,0.623966,0.279226,0.379036,-0.006179,-0.024297
129,2165570641431334,1.184616,9.884445,0.714447,8.866025,-0.091096,-4.582715,-0.02449,-0.023804,-0.002426,-0.033487,0.002214,-0.00678,0.623803,0.623925,0.279179,0.379007,-0.006228,-0.024421
130,2165570646375181,1.236084,9.896408,0.672562,8.898701,-0.139066,-4.55115,-0.021301,-0.027008,-0.001358,-0.03421,0.003085,-0.00227,0.623862,0.62391,0.279121,0.378978,-0.006277,-0.024545
131,2165570651288512,1.276794,9.914963,0.580383,8.924467,-0.236555,-4.53556,-0.022369,-0.027008,-0.001358,-0.034805,0.003219,-0.003142,0.623892,0.623925,0.279063,0.378945,-0.006324,-0.024668
132,2165570656232359,1.29715,9.929932,0.582169,8.947621,-0.238175,-4.52861,-0.025558,-0.029144,-0.004562,-0.038736,0.000586,-0.004753,0.62393,0.623937,0.278998,0.378911,-0.006374,-0.024796
133,2165570661176207,1.30014,9.918564,0.529495,8.932641,-0.289845,-4.524659,-0.030884,-0.030197,-0.006683,-0.042834,-0.00078,-0.008661,0.623965,0.623956,0.278935,0.378869,-0.006425,-0.024928
134,2165570666089537,1.303131,9.947891,0.544464,8.959586,-0.276873,-4.539201,-0.037277,-0.027008,-0.009888,-0.044181,-0.003364,-0.015923,0.624014,0.623956,0.278875,0.378833,-0.006472,-0.02505
135,2165570670911314,1.278595,9.989182,0.631851,8.990088,-0.188921,-4.578265,-0.042603,-0.027008,-0.009888,-0.047152,-0.002697,-0.020288,0.624094,0.623922,0.278809,0.378806,-0.00652,-0.025174
136,2165570675885679,1.28038,9.995178,0.695892,9.00349,-0.124565,-4.576993,-0.045807,-0.022751,-0.013077,-0.045845,-0.005729,-0.025541,0.624196,0.623858,0.278742,0.378792,-0.006568,-0.025297
137,2165570680860045,1.294754,10.00235,0.744385,9.023056,-0.077088,-4.566841,-0.045807,-0.017426,-0.015213,-0.041743,-0.008185,-0.028704,0.624307,0.623777,0.278675,0.378792,-0.006617,-0.025421
138,2165570685834410,1.257645,10.016724,0.716843,9.010522,-0.098746,-4.607716,-0.043671,-0.009964,-0.016281,-0.034562,-0.009991,-0.031259,0.624407,0.623696,0.278639,0.378787,-0.006666,-0.025544
139,2165570690778258,1.236694,9.989182,0.718048,8.976327,-0.09107,-4.609327,-0.042603,-0.003571,-0.017334,-0.028851,-0.011578,-0.034086,0.624505,0.623607,0.27862,0.378785,-0.006708,-0.025651
140,2165570695722105,1.206161,9.978409,0.721039,8.950844,-0.081307,-4.628086,-0.041534,-0.001434,-0.018402,-0.026632,-0.012903,-0.034497,0.624605,0.623514,0.278615,0.378778,-0.006751,-0.02576
141,2165570700665953,1.193588,9.983795,0.749771,8.951892,-0.049273,-4.639417,-0.038345,0.000687,-0.017334,-0.022978,-0.012378,-0.033017,0.624706,0.623415,0.278614,0.378775,-0.006794,-0.025869
142,2165570705609801,1.18103,9.968842,0.835358,8.943389,0.040555,-4.635158,-0.035141,0.002823,-0.015213,-0.019172,-0.010812,-0.031462,0.62482,0.623297,0.278608,0.378786,-0.006838,-0.025979
143,2165570710553648,1.205566,9.933517,0.789276,8.922528,-0.004049,-4.597769,-0.026627,0.004959,-0.012009,-0.012271,-0.008845,-0.025475,0.624901,0.623208,0.278606,0.378799,-0.006882,-0.026091
144,2165570715497496,1.252853,9.908386,0.673157,8.914054,-0.122477,-4.552321,-0.022369,0.00708,-0.012009,-0.008154,-0.009516,-0.023188,0.624938,0.623163,0.278612,0.378809,-0.006927,-0.026203
145,2165570720441344,1.242081,9.881439,0.618683,8.879396,-0.172482,-4.549183,-0.026627,0.010284,-0.012009,-0.007897,-0.00918,-0.028501,0.624967,0.623122,0.278628,0.378817,-0.006972,-0.026316
146,2165570725385191,1.237289,9.82518,0.839554,8.857939,0.051848,-4.506,-0.019165,-0.000381,-0.012009,-0.012488,-0.009441,-0.016327,0.625046,0.623041,0.278604,0.378836,-0.007017,-0.026429
147,2165570730329039,1.266617,9.852112,1.075378,8.925456,0.281766,-4.481259,-0.004257,-0.0121,-0.013077,-0.013923,-0.011642,0.00248,0.625165,0.622933,0.278541,0.378864,-0.007063,-0.026543
148,2165570735242369,1.263626,9.943695,0.879059,8.974531,0.082705,-4.549457,0.013855,-0.008896,-0.009888,-0.000796,-0.010983,0.015736,0.625203,0.622906,0.278525,0.378858,-0.007108,-0.026658
149,2165570740186217,1.234299,9.917358,0.530106,8.893395,-0.257987,-4.582513,0.018112,0.002823,-0.007751,0.011461,-0.010143,0.012722,0.625142,0.622969,0.27858,0.378814,-0.007154,-0.026774
150,2165570745130064,1.158875,9.821594,0.373276,8.753273,-0.398189,-4.600839,0.006393,-0.000381,-0.006683,0.002427,-0.007399,0.005004,0.625073,0.62305,0.278655,0.37874,-0.007201,-0.026892
151,2165570750073912,1.108002,9.773712,0.398422,8.688417,-0.363894,-4.614199,-0.006378,-0.011032,-0.001358,-0.01278,0.000158,0.00094,0.62504,0.623111,0.278701,0.37866,-0.007248,-0.02701
152,2165570755017760,1.14212,9.761139,0.561218,8.716857,-0.205871,-4.568734,-0.015976,-0.016357,0.002899,-0.021979,0.005918,-0.003617,0.625057,0.623125,0.278692,0.378616,-0.007294,-0.027127
153,2165570759870054,1.197784,9.812012,0.671951,8.802952,-0.105951,-4.545164,-0.021301,-0.017426,0.002899,-0.025828,0.006657,-0.007375,0.625101,0.623108,0.278649,0.378602,-0.007342,-0.027247
154,2165570764874937,1.174438,9.853912,0.74379,8.832851,-0.0335,-4.583865,-0.021301,-0.016357,0.001831,-0.025084,0.005532,-0.008052,0.625168,0.623067,0.278607,0.378591,-0.007389,-0.027368
155,2165570769727232,1.188812,9.898209,0.773117,8.880653,-0.008068,-4.59562,-0.017044,-0.011032,0.000763,-0.018471,0.003603,-0.007658,0.625229,0.623022,0.278575,0.378589,-0.007437,-0.02749
156,2165570774884703,1.201981,9.911377,0.753952,8.896321,-0.028715,-4.593831,-0.01384,-0.00676,0.003967,-0.012782,0.006102,-0.007237,0.62528,0.622979,0.278545,0.378596,-0.007484,-0.027613
157,2165570779920103,1.23909,9.92395,0.649811,8.91454,-0.136757,-4.577603,-0.009583,-0.002502,0.003967,-0.006912,0.005296,-0.006164,0.625311,0.622944,0.278531,0.378611,-0.007531,-0.027737
158,2165570785047056,1.274994,9.92334,0.612701,8.929487,-0.178377,-4.550396,-0.009583,0.002823,0.000763,-0.002938,0.00179,-0.00941,0.625301,0.622954,0.278522,0.378619,-0.007571,-0.027855
159,2165570790082457,1.154694,9.914963,0.598343,8.853731,-0.176271,-4.645245,-0.011719,0.001755,-0.001358,-0.005268,2.7e-05,-0.010701,0.62531,0.622948,0.278549,0.378595,-0.007612,-0.027974
160,2165570795056822,1.206161,9.925735,0.634842,8.895854,-0.146947,-4.606535,-0.017044,0.002823,0.000763,-0.007103,0.002734,-0.015528,0.625324,0.62293,0.278552,0.378598,-0.007653,-0.028095
161,2165570800000670,1.247467,9.96106,0.664169,8.951557,-0.125122,-4.590643,-0.017044,0.002823,-0.00029,-0.007232,0.001692,-0.015601,0.625341,0.62291,0.278542,0.378611,-0.007693,-0.028215
162,2165570804944517,1.222931,9.952667,0.639633,8.928046,-0.145373,-4.607499,-0.015976,0.004959,-0.002426,-0.005147,-0.000691,-0.016086,0.625354,0.622891,0.27855,0.378614,-0.007734,-0.028337
163,2165570809888365,1.240875,9.932327,0.640839,8.921642,-0.144879,-4.58092,-0.018097,0.006012,-0.002426,-0.005466,-0.000488,-0.018423,0.625367,0.62287,0.278552,0.378626,-0.007774,-0.028461
164,2165570814801695,1.264816,9.928726,0.650406,8.933363,-0.137814,-4.55834,-0.023422,0.00708,-0.005615,-0.007954,-0.003036,-0.023617,0.625389,0.622839,0.278547,0.378645,-0.007815,-0.028585
165,2165570819715025,1.246872,9.955673,0.760544,8.959224,-0.027227,-4.580402,-0.023422,0.00708,-0.005615,-0.007953,-0.003032,-0.023618,0.62544,0.622775,0.278534,0.378675,-0.007856,-0.028711
166,2165570824628355,1.222931,9.986191,0.806625,8.976865,0.020943,-4.613641,-0.021301,0.010284,-0.00882,-0.004533,-0.00667,-0.023922,0.625503,0.622695,0.278535,0.378702,-0.007897,-0.028838
167,2165570829541685,1.225922,9.969437,0.719849,8.954387,-0.063317,-4.607139,-0.020233,0.012405,-0.007751,-0.002063,-0.005877,-0.024177,0.62554,0.62264,0.278548,0.378722,-0.007939,-0.028965
168,2165570834455015,1.211548,9.936508,0.700684,8.917306,-0.077224,-4.600952,-0.023422,0.013474,-0.010956,-0.003357,-0.008708,-0.027624,0.625581,0.62258,0.27857,0.378737,-0.00798,-0.029093
169,2165570839368346,1.158875,9.940704,0.815613,8.90586,0.044971,-4.637835,-0.022369,0.012405,-0.010956,-0.003644,-0.008771,-0.026155,0.625656,0.622485,0.278592,0.378753,-0.008023,-0.02922
170,2165570844281676,1.140915,9.906586,0.784485,8.864348,0.020374,-4.634697,-0.018097,0.012405,-0.009888,-0.001127,-0.008253,-0.022578,0.625718,0.622404,0.278623,0.37876,-0.008065,-0.029348
171,2165570849195006,1.154694,9.859299,0.679733,8.820683,-0.081128,-4.603283,-0.018097,0.013474,-0.004562,0.000407,-0.003044,-0.022813,0.625747,0.622357,0.278655,0.378767,-0.008108,-0.029474
172,2165570854108336,1.243271,9.827576,0.502563,8.822423,-0.265958,-4.524785,-0.026627,0.009216,-0.004562,-0.007846,-0.001698,-0.027392,0.625734,0.622361,0.278669,0.378771,-0.008151,-0.029599
173,2165570858991148,1.334259,9.802444,0.490005,8.850822,-0.289021,-4.437099,-0.036209,-0.002502,-0.005615,-0.02294,-0.000799,-0.028671,0.625728,0.622376,0.278634,0.378783,-0.008193,-0.029724
174,2165570863873961,1.235489,9.78508,0.544464,8.787937,-0.22092,-4.504865,-0.043671,-0.00676,-0.006683,-0.03073,-0.000642,-0.032447,0.625765,0.622354,0.278606,0.378776,-0.008236,-0.029849
175,2165570868726256,1.191803,9.812607,0.682129,8.802935,-0.079376,-4.54698,-0.050064,-0.00676,-0.004562,-0.034037,0.002279,-0.03754,0.625849,0.622283,0.278566,0.378785,-0.008277,-0.029973
176,2165570873639586,1.246262,9.852722,0.876663,8.889976,0.105483,-4.511652,-0.048996,-0.008896,-0.002426,-0.034933,0.004402,-0.035298,0.625972,0.622169,0.278481,0.378831,-0.008318,-0.030096
177,2165570878522398,1.254654,9.885635,0.88504,8.92266,0.112268,-4.522913,-0.044739,-0.004639,-0.003494,-0.029195,0.002553,-0.034299,0.626085,0.622058,0.278407,0.378881,-0.008359,-0.030219
178,2165570883405211,1.243271,9.911972,0.92215,8.942544,0.150435,-4.544397,-0.035141,-0.000381,-0.002426,-0.020215,0.002132,-0.028771,0.626191,0.621947,0.278346,0.378933,-0.008398,-0.030341
179,2165570888318541,1.222931,9.956268,0.88324,8.962912,0.113228,-4.588708,-0.027695,0.002823,-0.001358,-0.013299,0.002045,-0.024409,0.626274,0.621854,0.278309,0.378975,-0.008435,-0.030469
180,2165570893231871,1.207962,9.969437,0.850922,8.96155,0.08362,-4.61048,-0.022369,0.003891,-0.001358,-0.009451,0.001299,-0.020648,0.626342,0.621777,0.278288,0.379005,-0.008471,-0.030596
181,2165570898206236,1.198975,9.976013,0.864685,8.963794,0.099056,-4.620222,-0.015976,0.004959,0.002899,-0.004485,0.004629,-0.015706,0.6264,0.621706,0.278268,0.379039,-0.008507,-0.030723
182,2165570903150084,1.230698,9.977219,0.849731,8.98072,0.080705,-4.595848,-0.007446,0.004959,0.001831,0.000142,0.002474,-0.008789,0.626442,0.62166,0.278245,0.379064,-0.008542,-0.03085
183,2165570908093931,1.253448,9.993378,0.813812,9.002305,0.04153,-4.588895,-0.001053,0.00708,-0.00029,0.005189,-0.000578,-0.004905,0.626464,0.621635,0.27823,0.37908,-0.008577,-0.030977
184,2165570913037779,1.296539,10.008347,0.728821,9.028166,-0.049402,-4.568237,0.0,0.00708,-0.00029,0.005776,-0.000714,-0.004042,0.626457,0.62164,0.278215,0.379092,-0.008612,-0.031104
185,2165570917981627,1.304932,9.986786,0.641434,9.004373,-0.136344,-4.555508,-0.002121,0.009216,-0.001358,0.006215,-0.001627,-0.007071,0.626432,0.621666,0.278209,0.379095,-0.008647,-0.031232
186,2165570922925474,1.29834,9.917358,0.679733,8.948402,-0.093764,-4.518748,-0.005325,0.009216,-0.003494,0.004166,-0.003328,-0.009852,0.626424,0.621674,0.278198,0.379105,-0.008683,-0.031361
187,2165570927869322,1.27919,9.934723,0.72702,8.95779,-0.045428,-4.540883,-0.007446,0.006012,-0.005615,9.2e-05,-0.004959,-0.009925,0.626435,0.621662,0.278188,0.379114,-0.008718,-0.031491
188,2165570932782652,1.274994,9.905991,0.816208,8.94288,0.045543,-4.52144,-0.008514,0.004959,-0.004562,-0.001238,-0.003714,-0.010127,0.626468,0.621624,0.278165,0.379139,-0.008754,-0.031623
189,2165570937726500,1.239685,9.911377,0.841949,8.930834,0.076069,-4.551432,-0.009583,0.004959,-0.004562,-0.001834,-0.003575,-0.011004,0.626514,0.621573,0.278147,0.379159,-0.008789,-0.031756
190,2165570942670347,1.212143,9.900604,0.807236,8.902421,0.046505,-4.570304,-0.004257,0.003891,-0.001358,0.000653,-0.001027,-0.005799,0.626544,0.62154,0.27814,0.379169,-0.008825,-0.031891
191,2165570947614195,1.18222,9.892822,0.747971,8.872088,-0.007456,-4.594669,-0.001053,0.003891,0.002899,0.002963,0.002772,-0.002862,0.626556,0.621527,0.278145,0.379166,-0.008859,-0.032024
192,2165570952558043,1.169647,9.888626,0.739594,8.860609,-0.013666,-4.603189,-0.001053,0.001755,0.007156,0.001732,0.007114,-0.00134,0.626564,0.621519,0.278146,0.379165,-0.008894,-0.032163
193,2165570957471373,1.209152,9.901199,0.765335,8.896126,0.005747,-4.576078,0.002136,-0.003571,0.009293,-0.000599,0.009136,0.004455,0.626564,0.621518,0.278133,0.379177,-0.008929,-0.032302
194,2165570962415221,1.192993,9.909576,0.755753,8.892708,-0.002421,-4.594975,0.00853,-0.005707,0.010361,0.001345,0.009494,0.010988,0.626557,0.621531,0.278123,0.379174,-0.008963,-0.032444
195,2165570967359068,1.198975,9.870071,0.721634,8.859322,-0.035182,-4.570316,0.011719,-0.004639,0.011429,0.004133,0.010075,0.013073,0.626535,0.621559,0.278116,0.37917,-0.008997,-0.032588
196,2165570972272398,1.19838,9.903595,0.678543,8.881128,-0.080471,-4.593126,0.013855,-0.003571,0.010361,0.00607,0.008679,0.014139,0.6265,0.621599,0.278123,0.379157,-0.009031,-0.032732
197,2165570977185728,1.262421,9.904785,0.669556,8.916489,-0.099035,-4.542383,0.018112,-0.008896,0.010361,0.004075,0.008452,0.020652,0.62645,0.621662,0.278109,0.379147,-0.009065,-0.032878
198,2165570982160094,1.26123,9.916763,0.691711,8.928098,-0.079011,-4.549081,0.024506,-0.011032,0.010361,0.005891,0.007758,0.027106,0.626398,0.62173,0.278095,0.379131,-0.009099,-0.033023
199,2165570987103941,1.263626,9.907181,0.656403,8.916925,-0.115127,-4.544758,0.026642,-0.011032,0.008224,0.006821,0.005372,0.028701,0.626336,0.621809,0.278089,0.379107,-0.009133,-0.033168
200,2165570992047789,1.295944,9.926331,0.58577,8.941792,-0.192104,-4.534537,0.024506,-0.004639,0.005035,0.010485,0.002107,0.023088,0.626255,0.6219,0.278098,0.379086,-0.00916,-0.033316
201,2165570996991637,1.268417,9.943695,0.634247,8.946508,-0.142724,-4.563757,0.022385,-0.004639,0.000763,0.008776,-0.001844,0.021042,0.626198,0.621967,0.278113,0.37906,-0.009186,-0.033463
202,2165571001935484,1.268417,9.950287,0.762939,8.967698,-0.016504,-4.558438,0.025574,-0.003571,0.002899,0.011696,-0.000204,0.023203,0.626165,0.622004,0.278113,0.379054,-0.009213,-0.033607
203,2165571006879332,1.272003,9.956268,0.737793,8.971589,-0.043131,-4.5605,0.029831,0.003891,0.001831,0.020062,-0.002263,0.022378,0.626114,0.622046,0.278133,0.379053,-0.009241,-0.033751
204,2165571011792662,1.257645,9.945496,0.649216,8.943944,-0.129365,-4.572213,0.028763,0.00708,0.000763,0.021951,-0.003375,0.019615,0.626046,0.622105,0.278173,0.37904,-0.009269,-0.033894
205,2165571016736510,1.182816,9.886841,0.58876,8.846767,-0.176717,-4.604216,0.023438,0.008148,0.001831,0.019988,-0.001695,0.01472,0.62598,0.622162,0.278234,0.379011,-0.009297,-0.034036
206,2165571021680357,1.190002,9.868286,0.62767,8.840413,-0.138583,-4.584869,0.018112,0.003891,0.003967,0.013786,0.001366,0.012922,0.625932,0.622206,0.278272,0.37899,-0.009326,-0.034177
207,2165571026624205,1.212143,9.871872,0.742584,8.869838,-0.028291,-4.560678,0.017044,-0.002502,0.006104,0.008207,0.004012,0.015829,0.625913,0.622227,0.278275,0.378985,-0.009355,-0.034318
208,2165571031568053,1.23848,9.887436,0.755753,8.898889,-0.020109,-4.547064,0.017044,-0.002502,0.006104,0.008208,0.004013,0.015829,0.625894,0.622247,0.278269,0.378988,-0.009386,-0.03446
209,2165571036481383,1.258835,9.888031,0.731812,8.907697,-0.047207,-4.532558,0.015991,-0.003571,0.007156,0.006873,0.005255,0.015647,0.625868,0.622276,0.278257,0.378992,-0.009416,-0.034604
210,2165571041425230,1.261826,9.88205,0.661789,8.89563,-0.117438,-4.531995,0.011719,-0.00676,0.006104,0.001744,0.004959,0.01388,0.625834,0.62232,0.278245,0.378984,-0.009447,-0.03475
211,2165571046369078,1.279785,9.888626,0.697098,8.915153,-0.086043,-4.518977,0.011719,-0.009964,0.005035,-0.001017,0.0041,0.015624,0.625809,0.622359,0.278221,0.378978,-0.009477,-0.034898
212,2165571051312926,1.324081,9.891617,0.713257,8.94405,-0.076881,-4.483755,0.009598,-0.011032,0.002899,-0.003339,0.002325,0.014341,0.625789,0.622395,0.278182,0.378982,-0.009507,-0.035044
213,2165571056256773,1.280975,9.860504,0.787476,8.903362,0.00378,-4.496741,0.007462,-0.013153,0.000763,-0.006535,0.000615,0.013645,0.625799,0.622403,0.278143,0.378981,-0.009538,-0.035202
214,2165571061170103,1.278595,9.876053,0.859909,8.923494,0.074913,-4.502943,0.007462,-0.014221,-0.00029,-0.00754,-0.000362,0.014178,0.62583,0.62239,0.278096,0.378987,-0.009567,-0.035359
215,2165571066113951,1.250458,9.905396,0.88324,8.934461,0.099996,-4.541584,0.015991,-0.015289,0.000763,-0.003525,-0.000348,0.021852,0.625857,0.622382,0.278059,0.378981,-0.009597,-0.03552
216,2165571071057799,1.242676,9.903,0.891022,8.928805,0.108767,-4.546683,0.028763,-0.017426,0.001831,0.001984,-0.000797,0.033612,0.625868,0.622394,0.278031,0.378965,-0.009626,-0.035684
217,2165571076184752,1.239685,9.916763,0.891632,8.93822,0.108629,-4.557457,0.038361,-0.015289,0.001831,0.009097,-0.002159,0.040265,0.625861,0.62242,0.278017,0.378943,-0.009655,-0.03585
218,2165571081006529,1.190002,9.938904,0.807831,8.918109,0.030347,-4.61701,0.050079,-0.009964,-0.00029,0.019746,-0.006083,0.046694,0.625825,0.62247,0.278049,0.378896,-0.009684,-0.036018
219,2165571085889342,1.225311,9.938309,0.790466,8.935098,0.007814,-4.589138,0.056473,-0.005707,0.000763,0.02694,-0.006114,0.049591,0.625766,0.622537,0.278085,0.378858,-0.009714,-0.036187
220,2165571090802672,1.262421,9.947891,0.826385,8.968035,0.03688,-4.561811,0.062851,-0.005707,0.001831,0.030633,-0.005862,0.054895,0.6257,0.622608,0.278111,0.378831,-0.00974,-0.036331
221,2165571095716002,1.243866,9.962845,0.852722,8.973079,0.063485,-4.583931,0.072449,-0.007828,-0.003494,0.033595,-0.012212,0.063597,0.625635,0.622683,0.278152,0.378785,-0.009766,-0.036475
222,2165571100659849,1.204361,9.998169,0.926346,8.989122,0.138595,-4.631238,0.08522,-0.003571,-0.003494,0.044218,-0.014087,0.07165,0.625571,0.622748,0.278215,0.378737,-0.009792,-0.03662
223,2165571105603697,1.217529,10.009537,0.910782,9.00392,0.119691,-4.627952,0.096939,-0.002502,-0.001358,0.051901,-0.013506,0.080803,0.625482,0.622837,0.278286,0.378687,-0.009819,-0.036763
224,2165571110547545,1.263626,10.033478,0.868286,9.044059,0.068531,-4.606677,0.108658,-0.001434,-0.003494,0.059056,-0.01714,0.089663,0.625359,0.622958,0.278365,0.378631,-0.009847,-0.036906
225,2165571115491392,1.25943,10.029892,0.901199,9.042944,0.100103,-4.605657,0.117188,0.000687,-0.003494,0.065556,-0.018315,0.09546,0.625232,0.623079,0.278452,0.378578,-0.009875,-0.037048
226,2165571120435240,1.295349,10.04245,0.897018,9.072855,0.088336,-4.583541,0.12677,-0.000381,-0.002426,0.07016,-0.018356,0.104006,0.625084,0.623222,0.278536,0.378526,-0.009903,-0.037189
227,2165571125348570,1.315704,10.018509,0.907791,9.066033,0.095534,-4.55231,0.136368,0.002823,-0.005615,0.077749,-0.022875,0.109853,0.624925,0.623371,0.278628,0.378475,-0.009932,-0.03733
228,2165571130292418,1.367172,10.061615,0.959854,9.136745,0.135069,-4.530821,0.144882,0.003891,-0.005615,0.083372,-0.023962,0.116243,0.624757,0.623525,0.278711,0.378439,-0.009961,-0.03747
229,2165571135236265,1.358795,10.074173,1.04126,9.152621,0.21342,-4.539119,0.158737,0.002823,-0.009888,0.089696,-0.029801,0.127945,0.624595,0.623673,0.278804,0.378394,-0.009989,-0.03761
230,2165571140149596,1.350418,10.072983,1.055634,9.148863,0.226192,-4.54423,0.174713,-0.000381,-0.012009,0.095718,-0.033615,0.142749,0.62442,0.623838,0.278909,0.378332,-0.010018,-0.037748
231,2165571145093443,1.361191,10.036469,1.070587,9.126818,0.239043,-4.513712,0.189621,-0.003571,-0.012009,0.101419,-0.035174,0.156812,0.624226,0.624027,0.279016,0.378261,-0.010045,-0.037886
232,2165571150037291,1.37854,10.047836,1.077179,9.146658,0.239342,-4.505669,0.207733,-0.005707,-0.014145,0.109509,-0.039283,0.172772,0.624009,0.624243,0.279135,0.378176,-0.010072,-0.038022
233,2165571154981138,1.407272,10.039459,1.105911,9.159302,0.261172,-4.475851,0.227966,-0.009964,-0.01947,0.116652,-0.046636,0.191479,0.623773,0.624484,0.279261,0.378075,-0.010098,-0.038158
234,2165571159924986,1.391708,10.04245,1.207062,9.165477,0.359731,-4.484324,0.247147,-0.013153,-0.023727,0.12422,-0.052841,0.208794,0.623542,0.624722,0.279397,0.377961,-0.010124,-0.038297
235,2165571164838316,1.434219,10.031082,1.210052,9.180098,0.354247,-4.443439,0.273773,-0.015289,-0.026932,0.13694,-0.05893,0.231701,0.623274,0.625001,0.279544,0.377834,-0.01015,-0.038434
236,2165571169782164,1.538361,10.028091,1.281876,9.244439,0.408244,-4.352701,0.304672,-0.019547,-0.036514,0.149519,-0.071651,0.258941,0.622972,0.625318,0.27969,0.377699,-0.010176,-0.038573
237,2165571174726012,1.51741,10.014328,1.305222,9.223908,0.430089,-4.362048,0.340897,-0.029144,-0.046097,0.16071,-0.084545,0.293614,0.622642,0.62568,0.279871,0.37751,-0.010201,-0.03871
238,2165571179700377,1.583847,10.015518,1.296844,9.26051,0.408394,-4.310126,0.373917,-0.028076,-0.058884,0.178471,-0.10083,0.319454,0.622259,0.626094,0.280087,0.377295,-0.010226,-0.038846
239,2165571184613707,1.697571,10.008347,1.150192,9.29967,0.243891,-4.222347,0.403748,-0.018478,-0.078064,0.200651,-0.12352,0.337535,0.621798,0.626574,0.280356,0.377057,-0.010246,-0.038962
240,2165571189557554,1.699966,10.007736,0.999359,9.281859,0.087784,-4.228803,0.429306,-0.000381,-0.097229,0.227406,-0.146133,0.347403,0.621266,0.627104,0.280724,0.37678,-0.010266,-0.039078
241,2165571194501402,1.632339,9.928726,0.955673,9.174066,0.053667,-4.241621,0.451675,0.009216,-0.120667,0.244946,-0.171709,0.359407,0.620678,0.627696,0.281322,0.376319,-0.010287,-0.039193
242,2165571199414732,1.471329,9.88623,0.952072,9.048973,0.06742,-4.349756,0.477249,0.008148,-0.138779,0.25623,-0.191458,0.380503,0.620075,0.628306,0.28197,0.375808,-0.010307,-0.039309
243,2165571204358580,1.392319,9.876663,0.719238,8.968817,-0.158188,-4.42035,0.497482,0.011337,-0.148361,0.269094,-0.202293,0.39534,0.619436,0.628948,0.282668,0.375262,-0.010328,-0.039425
244,2165571209271910,1.39949,9.88504,0.364899,8.937378,-0.515387,-4.434349,0.509201,0.022003,-0.155823,0.283596,-0.210535,0.399123,0.618769,0.629602,0.283406,0.37471,-0.010348,-0.03954
245,2165571214215758,1.41925,9.847931,0.206284,8.899812,-0.67621,-4.401679,0.50708,0.025192,-0.164352,0.28412,-0.217774,0.395761,0.618101,0.630252,0.284165,0.374145,-0.010369,-0.039655
246,2165571219159605,1.343826,9.799438,0.206879,8.818882,-0.667905,-4.43385,0.50174,0.017731,-0.172867,0.274144,-0.223887,0.395804,0.617455,0.630892,0.284922,0.373557,-0.01039,-0.039768
247,2165571224103453,1.15947,9.744385,0.201492,8.670868,-0.654209,-4.552601,0.500687,0.010284,-0.175003,0.267362,-0.22411,0.399639,0.616821,0.63153,0.285677,0.372949,-0.01041,-0.03988
248,2165571229047301,1.046951,9.76712,0.207489,8.627943,-0.642968,-4.65628,0.49855,0.000687,-0.170731,0.258984,-0.217707,0.404021,0.616196,0.632172,0.286411,0.37233,-0.010431,-0.039989
249,2165571233991148,1.027802,9.801834,0.187134,8.643717,-0.668258,-4.691142,0.493225,-0.007828,-0.166473,0.249713,-0.21111,0.405119,0.61558,0.632816,0.287121,0.371707,-0.010452,-0.040097
250,2165571238934996,1.030792,9.84613,0.178146,8.680768,-0.685278,-4.713315,0.491089,-0.021683,-0.163284,0.237731,-0.205472,0.411784,0.614975,0.63347,0.287802,0.371069,-0.010473,-0.040204
251,2165571243878844,1.014633,9.88205,0.203888,8.70401,-0.665525,-4.745862,0.491089,-0.031265,-0.161148,0.230342,-0.201399,0.417727,0.614375,0.634131,0.288464,0.370418,-0.010493,-0.040309
252,2165571248792174,0.952972,9.906586,0.23143,8.692391,-0.639505,-4.809946,0.492157,-0.040848,-0.153687,0.224166,-0.19213,0.424668,0.613779,0.6348,0.289098,0.369766,-0.010512,-0.040409
253,2165571253736021,0.891922,9.943695,0.246384,8.68948,-0.627646,-4.881851,0.495361,-0.05896,-0.147308,0.212087,-0.183402,0.438111,0.613184,0.635495,0.289703,0.369086,-0.010531,-0.040509
254,2165571258527281,0.856018,9.962845,0.163193,8.674306,-0.714635,-4.925804,0.499619,-0.077072,-0.136642,0.201102,-0.170492,0.452461,0.612601,0.636199,0.290251,0.36841,-0.01055,-0.040611
255,2165571263562681,0.782394,10.021515,-0.425186,8.613074,-1.305209,-5.033402,0.502808,-0.095184,-0.122803,0.189918,-0.1542,0.465951,0.611963,0.63699,0.290794,0.367674,-0.010568,-0.040712
256,2165571268537047,0.788971,10.077774,-0.61972,8.638883,-1.511493,-5.064883,0.483643,-0.116486,-0.102554,0.16432,-0.129565,0.462826,0.611352,0.637783,0.29125,0.366953,-0.010586,-0.04081
257,2165571273358824,0.918854,10.079559,-0.265366,8.746791,-1.176521,-4.962018,0.457001,-0.14418,-0.086578,0.129112,-0.108264,0.456883,0.610923,0.638641,0.291398,0.366057,-0.010604,-0.040907
258,2165571278394224,1.072083,10.078964,-0.021759,8.859019,-0.953504,-4.831556,0.436768,-0.16655,-0.078064,0.100486,-0.09532,0.453228,0.610286,0.639327,0.291891,0.365529,-0.010623,-0.041003
259,2165571283368590,1.210953,10.068787,-0.000809,8.927345,-0.948704,-4.716906,0.428238,-0.175079,-0.076996,0.089247,-0.091914,0.451171,0.609796,0.640085,0.292136,0.364823,-0.010643,-0.041099
260,2165571288312437,1.264221,10.04245,-0.191757,8.911051,-1.146375,-4.665272,0.415466,-0.172943,-0.080185,0.083864,-0.093411,0.439536,0.609322,0.640823,0.292375,0.364128,-0.010667,-0.041177
261,2165571293256285,1.216339,9.976624,-0.441345,8.799862,-1.39094,-4.672815,0.385635,-0.14418,-0.087646,0.09009,-0.100433,0.398725,0.608873,0.641492,0.292649,0.363482,-0.010691,-0.041255
262,2165571298200133,1.116974,9.911377,-0.452713,8.687231,-1.394413,-4.71969,0.34729,-0.106903,-0.089783,0.098937,-0.102575,0.346106,0.60846,0.642065,0.292951,0.362916,-0.010717,-0.041334
263,2165571303143980,0.973923,9.861099,-0.334808,8.576511,-1.267566,-4.81028,0.31958,-0.094116,-0.084457,0.094513,-0.096038,0.316175,0.608086,0.642581,0.293241,0.362397,-0.010744,-0.041413
264,2165571308087828,0.92424,9.802444,-0.212708,8.511987,-1.141883,-4.819707,0.301483,-0.093048,-0.073792,0.08649,-0.083886,0.300795,0.607735,0.64307,0.293498,0.361909,-0.010772,-0.041493
265,2165571313031676,1.023605,9.792862,-0.114532,8.569291,-1.053796,-4.73472,0.291885,-0.088791,-0.063141,0.085848,-0.072627,0.290556,0.607388,0.643545,0.29373,0.361457,-0.0108,-0.041575
266,2165571317975523,1.038574,9.794052,-0.04631,8.584377,-0.991282,-4.725484,0.28656,-0.087723,-0.056747,0.084542,-0.065613,0.285622,0.607047,0.644013,0.293946,0.361023,-0.010828,-0.041659
267,2165571322919371,1.083466,9.76593,-0.051086,8.584614,-1.000603,-4.674742,0.284439,-0.084534,-0.051422,0.086654,-0.060061,0.282099,0.6067,0.644479,0.294154,0.360605,-0.010856,-0.041745
268,2165571327863219,1.076874,9.776703,-0.069046,8.586085,-1.023599,-4.688249,0.282303,-0.081329,-0.047165,0.088645,-0.055585,0.278543,0.60635,0.644941,0.294359,0.360199,-0.010883,-0.041833
269,2165571332807066,1.043961,9.78688,-0.104965,8.570356,-1.06302,-4.722587,0.276978,-0.073883,-0.042908,0.092273,-0.051338,0.269938,0.605999,0.645392,0.294564,0.359814,-0.010909,-0.041923
270,2165571337750914,0.991287,9.808426,-0.16481,8.550124,-1.126454,-4.779263,0.271652,-0.071747,-0.035446,0.091897,-0.043444,0.264322,0.605647,0.645839,0.294759,0.359444,-0.010933,-0.042017
271,2165571342664244,0.960754,9.795853,-0.137878,8.523937,-1.101831,-4.798894,0.269516,-0.070679,-0.031189,0.09211,-0.03883,0.261945,0.605299,0.64628,0.294946,0.359086,-0.010956,-0.042114
272,2165571347608092,0.927841,9.819794,-0.146255,8.522431,-1.115809,-4.840842,0.263123,-0.066422,-0.023727,0.092838,-0.031122,0.254207,0.604949,0.646714,0.295124,0.358747,-0.010979,-0.042217
273,2165571352551939,0.941605,9.871872,-0.166611,8.569093,-1.14714,-4.860352,0.258865,-0.065353,-0.015213,0.092283,-0.022205,0.250009,0.604597,0.647148,0.295286,0.358425,-0.011,-0.042319
274,2165571357495787,0.92485,9.883835,-0.30069,8.55348,-1.286424,-4.88047,0.252472,-0.065353,-0.007751,0.089525,-0.014144,0.24466,0.604244,0.647581,0.295433,0.358116,-0.01102,-0.042425
275,2165571362348082,0.879959,9.893417,-0.386276,8.52482,-1.375995,-4.923148,0.246078,-0.076004,-0.00029,0.078091,-0.005089,0.245371,0.603907,0.648014,0.295548,0.357807,-0.011059,-0.042655
276,2165571367352965,0.798553,9.873672,-0.337204,8.465465,-1.327645,-4.981383,0.238632,-0.084534,0.012482,0.068366,0.009087,0.243907,0.60357,0.648462,0.295627,0.357499,-0.011059,-0.042655
277,2165571372205260,0.772217,9.868286,-0.276749,8.450326,-1.272201,-5.002951,0.238632,-0.086655,0.022079,0.067767,0.019115,0.244916,0.60324,0.648901,0.295686,0.35721,-0.011078,-0.042776
278,2165571377301695,0.771011,9.862289,-0.242035,8.446123,-1.24433,-5.003249,0.241821,-0.085602,0.031662,0.071577,0.028686,0.246701,0.602879,0.649372,0.295735,0.356923,-0.011097,-0.042899
279,2165571382215025,0.725525,9.858704,-0.245621,8.414464,-1.252936,-5.040602,0.246078,-0.088791,0.042313,0.072664,0.039684,0.251741,0.60252,0.64984,0.295766,0.356651,-0.011116,-0.043024
280,2165571387128355,0.740494,9.845535,-0.304276,8.40336,-1.318795,-5.021933,0.248215,-0.094116,0.056168,0.071164,0.054186,0.25617,0.602146,0.650329,0.295769,0.356389,-0.011135,-0.043151
281,2165571392041685,0.809326,9.870667,-0.392273,8.450881,-1.420641,-4.980278,0.251404,-0.096252,0.067886,0.072647,0.066209,0.259645,0.601753,0.650836,0.295752,0.35614,-0.011158,-0.043245
282,2165571396955015,0.846436,9.856308,-0.435959,8.452908,-1.473235,-4.942794,0.246078,-0.094116,0.075333,0.072287,0.073917,0.253768,0.601359,0.651341,0.295721,0.355909,-0.011181,-0.043339
283,2165571401898863,0.855408,9.856308,-0.488037,8.449522,-1.534546,-4.93634,0.238632,-0.094116,0.081726,0.068866,0.080863,0.247388,0.600967,0.651844,0.295672,0.355691,-0.011204,-0.043433
284,2165571406842711,0.930237,9.822189,-0.571228,8.45271,-1.625955,-4.855409,0.230103,-0.09198,0.08493,0.066213,0.084441,0.238969,0.60058,0.652338,0.295613,0.355488,-0.011227,-0.043525
285,2165571411786558,0.984695,9.845535,-0.599365,8.497055,-1.667598,-4.825191,0.218384,-0.084534,0.08812,0.066034,0.087546,0.224895,0.600201,0.652812,0.295547,0.355312,-0.011249,-0.043616
286,2165571416730406,1.040359,9.826385,-0.634079,8.507014,-1.711014,-4.769203,0.20134,-0.077072,0.089188,0.062568,0.088706,0.206516,0.599841,0.653257,0.295474,0.355163,-0.011271,-0.043705
287,2165571421674254,1.058914,9.782684,-0.607147,8.482743,-1.688696,-4.730991,0.186432,-0.068558,0.090256,0.06116,0.089618,0.189291,0.599499,0.653672,0.295397,0.355042,-0.011294,-0.043791
288,2165571426587584,1.136139,9.788071,-0.674179,8.521961,-1.766828,-4.669701,0.170456,-0.054703,0.089188,0.063216,0.087831,0.168201,0.599171,0.654051,0.295327,0.354955,-0.011315,-0.043875
289,2165571431531431,1.223526,9.807831,-0.778931,8.574614,-1.883796,-4.606999,0.148071,-0.048309,0.08493,0.055169,0.083879,0.146262,0.598871,0.654395,0.295252,0.354889,-0.011337,-0.043955
290,2165571436475279,1.329468,9.852112,-0.837585,8.663038,-1.957594,-4.544518,0.123581,-0.042984,0.077469,0.04467,0.076902,0.123337,0.598609,0.654697,0.295172,0.354841,-0.01136,-0.044033
291,2165571441419127,1.291763,9.877853,-0.787903,8.666391,-1.91518,-4.592089,0.099075,-0.032333,0.066818,0.038101,0.06614,0.097467,0.598392,0.654942,0.295105,0.354812,-0.011382,-0.044107
292,2165571446362974,1.21814,9.88205,-0.758575,8.629809,-1.888193,-4.655672,0.076706,-0.018478,0.055099,0.035214,0.053853,0.071561,0.598213,0.655131,0.295059,0.354802,-0.011403,-0.044177
293,2165571451306822,1.148102,9.919159,-0.751389,8.619813,-1.88624,-4.734291,0.053268,-0.007828,0.051895,0.030053,0.050393,0.04636,0.59807,0.655272,0.295017,0.354819,-0.011424,-0.044246
294,2165571456220152,1.059525,9.922745,-0.690948,8.578078,-1.826377,-4.81058,0.034088,-0.003571,0.051895,0.022507,0.050647,0.028216,0.59796,0.655375,0.294967,0.354854,-0.011445,-0.044316
295,2165571461194517,1.045151,9.92514,-0.646057,8.576274,-1.784427,-4.8251,0.018112,-0.002502,0.055099,0.014576,0.054312,0.014423,0.597873,0.655456,0.294899,0.354909,-0.011465,-0.044384
296,2165571466107847,1.114578,9.980804,-0.646652,8.66056,-1.796483,-4.800456,0.004272,-0.005707,0.056168,0.004166,0.056252,0.004905,0.59781,0.65552,0.29481,0.354971,-0.011484,-0.04445
297,2165571471021178,0.938019,9.9832,-0.446136,8.582702,-1.593269,-4.953981,-0.001053,-0.02594,0.059357,-0.01492,0.061879,0.012068,0.597778,0.655585,0.294686,0.355007,-0.011503,-0.044517
298,2165571475842955,0.888336,9.989182,-0.136688,8.591867,-1.287741,-5.011307,0.018112,-0.073883,0.071075,-0.041418,0.078155,0.054908,0.597755,0.655712,0.294489,0.354975,-0.011521,-0.044585
299,2165571480908873,1.118774,10.068787,-0.364136,8.760107,-1.535542,-4.864892,0.034088,-0.09198,0.077469,-0.046112,0.085951,0.078165,0.597697,0.655904,0.294253,0.354912,-0.011538,-0.044652
300,2165571485913756,1.278595,10.092728,-0.502396,8.853295,-1.685753,-4.746369,0.028763,-0.072815,0.072144,-0.034199,0.078738,0.062968,0.597631,0.656074,0.29405,0.35488,-0.011554,-0.044721
301,2165571490857603,1.24028,9.991577,-0.412613,8.757151,-1.587163,-4.725818,0.023438,-0.081329,0.063614,-0.045083,0.071455,0.063814,0.597591,0.65623,0.293845,0.354827,-0.01157,-0.044792
302,2165571495801451,0.325104,9.664764,0.509155,8.069599,-0.602234,-5.318966,0.036224,-0.063232,0.068939,-0.022424,0.074214,0.063659,0.597568,0.656342,0.293687,0.354789,-0.011584,-0.04484
303,2165571500745299,0.242493,9.775497,0.463669,8.105829,-0.662192,-5.44896,0.087357,-0.014221,0.112625,0.051758,0.110066,0.075661,0.597389,0.656518,0.293581,0.354853,-0.011599,-0.044891
304,2165571505658629,0.84584,10.035873,0.126678,8.623696,-1.057974,-5.095361,0.122513,-0.032333,0.14032,0.060637,0.138292,0.113768,0.597118,0.656803,0.293418,0.354916,-0.011613,-0.044942
305,2165571510571959,1.276199,10.193298,-0.082809,8.973243,-1.310351,-4.827285,0.150208,-0.021683,0.144577,0.085812,0.140261,0.129993,0.596775,0.657136,0.293276,0.354994,-0.011627,-0.044995
306,2165571515515806,1.665253,10.17952,-0.574829,9.127135,-1.821997,-4.483522,0.157669,-0.019547,0.129669,0.0902,0.124978,0.135278,0.596401,0.657496,0.29316,0.355053,-0.011641,-0.045049
307,2165571520459654,1.77359,10.119064,-0.666397,9.128244,-1.918613,-4.356516,0.148071,-0.023804,0.104095,0.078305,0.100514,0.130739,0.596062,0.657832,0.293068,0.355075,-0.011654,-0.045103
308,2165571525372984,1.705353,10.078964,-0.435364,9.082759,-1.688984,-4.397049,0.1353,-0.009964,0.076401,0.078918,0.071926,0.113318,0.595771,0.658104,0.293028,0.355092,-0.011668,-0.045159
309,2165571530316832,1.527588,10.058014,-0.546692,8.949914,-1.79635,-4.524194,0.133163,0.011337,0.058289,0.092785,0.05155,0.09996,0.595481,0.658345,0.293057,0.355109,-0.011682,-0.045214
310,2165571535260679,1.388718,10.013733,-0.81604,8.801634,-2.058339,-4.600423,0.120377,-0.000381,0.045517,0.074439,0.040791,0.096734,0.595225,0.658575,0.293088,0.355086,-0.011696,-0.045269
311,2165571540204527,1.292953,9.963455,-0.83519,8.702856,-2.072223,-4.648219,0.103333,-0.009964,0.039124,0.056124,0.036258,0.088561,0.59501,0.658783,0.293105,0.355046,-0.011709,-0.045325
312,2165571545148375,1.270203,9.930527,-0.81424,8.664944,-2.050425,-4.648246,0.087357,-0.0121,0.033798,0.04457,0.03184,0.076939,0.594829,0.658964,0.293113,0.355006,-0.011721,-0.045381
313,2165571550092222,1.25824,9.892822,-0.720871,8.638028,-1.956014,-4.639952,0.075638,-0.015289,0.028473,0.034615,0.027387,0.069407,0.594679,0.659122,0.293113,0.354964,-0.011733,-0.045437
314,2165571555005553,1.255844,9.903595,-0.642456,8.654022,-1.882219,-4.65147,0.067123,-0.019547,0.0242,0.025766,0.023988,0.065069,0.594552,0.659265,0.293106,0.354917,-0.011745,-0.045493
315,2165571559827330,1.246262,9.915558,-0.621506,8.660113,-1.864966,-4.667138,0.058594,-0.015289,0.022079,0.024047,0.021686,0.055731,0.594442,0.659387,0.293101,0.35488,-0.011757,-0.045549
316,2165571564740660,1.229507,9.941895,-0.580215,8.676167,-1.828708,-4.697819,0.051132,-0.014221,0.018875,0.020232,0.018653,0.04915,0.594346,0.659494,0.293096,0.354845,-0.01177,-0.045604
317,2165571569776060,1.217529,9.934113,-0.550278,8.666162,-1.799441,-4.704432,0.043686,-0.009964,0.014618,0.018876,0.014183,0.040792,0.594263,0.659586,0.293096,0.354815,-0.011784,-0.04566
318,2165571574628355,1.210358,9.952072,-0.506592,8.681558,-1.759517,-4.722275,0.038361,-0.004639,0.012482,0.019857,0.011607,0.033464,0.594188,0.659658,0.293105,0.354797,-0.011798,-0.045715
319,2165571579663756,1.190002,9.971222,-0.477264,8.688725,-1.733285,-4.750891,0.035156,-0.001434,0.008224,0.020091,0.007109,0.02918,0.594121,0.65972,0.293123,0.35478,-0.011813,-0.04577
320,2165571584638121,1.204361,9.978409,-0.388672,8.713446,-1.647694,-4.7467,0.029831,0.002823,0.005035,0.02008,0.003614,0.022515,0.594067,0.659764,0.293144,0.354771,-0.011825,-0.045797
321,2165571589581969,1.170258,9.96405,-0.360535,8.685765,-1.617465,-4.766895,0.024506,0.009216,0.002899,0.021922,0.000899,0.014578,0.594022,0.659791,0.293175,0.354772,-0.011839,-0.045824
322,2165571594525816,1.128357,9.940704,-0.347382,8.644639,-1.600754,-4.787411,0.025574,0.014542,0.003967,0.02697,0.001271,0.012339,0.593971,0.659814,0.293213,0.354782,-0.011853,-0.045849
323,2165571599469664,1.09903,9.950882,-0.349762,8.636144,-1.603863,-4.816121,0.024506,0.018799,0.001831,0.029539,-0.001331,0.00911,0.593921,0.65983,0.293262,0.354796,-0.011869,-0.045874
324,2165571604382994,1.073288,9.941895,-0.35994,8.613401,-1.61246,-4.830313,0.025574,0.024124,0.001831,0.034458,-0.002019,0.006921,0.593866,0.659842,0.29332,0.354816,-0.011884,-0.045897
325,2165571609326842,1.037369,9.937714,-0.364731,8.589415,-1.616011,-4.855699,0.02771,0.02626,0.001831,0.037415,-0.002353,0.007441,0.593806,0.659856,0.293386,0.354837,-0.011898,-0.045918
326,2165571614270689,1.026596,9.930527,-0.401245,8.573706,-1.651553,-4.857409,0.030899,0.027328,0.000763,0.039986,-0.00365,0.009483,0.593741,0.659874,0.293458,0.354854,-0.011913,-0.045939
327,2165571619214537,1.045746,9.90239,-0.447937,8.557057,-1.695739,-4.82213,0.033035,0.027328,0.000763,0.041215,-0.00372,0.011234,0.593669,0.659897,0.293532,0.35487,-0.011927,-0.045958
328,2165571624158385,1.050537,9.874863,-0.464691,8.536212,-1.709928,-4.800177,0.034088,0.028381,0.002899,0.042927,-0.001765,0.011402,0.593592,0.659923,0.293605,0.354889,-0.011941,-0.045977
329,2165571629071715,1.075684,9.874268,-0.501205,8.546528,-1.747724,-4.776154,0.035156,0.029449,0.001831,0.044276,-0.002989,0.011714,0.593512,0.65995,0.293682,0.354908,-0.011955,-0.045998
330,2165571633985045,1.095428,9.843735,-0.511383,8.532628,-1.755657,-4.740532,0.036224,0.028381,0.002899,0.044153,-0.001832,0.01316,0.59343,0.659982,0.293755,0.354927,-0.011968,-0.046019
331,2165571638928892,1.092438,9.846725,-0.525742,8.532284,-1.77096,-4.742546,0.036224,0.028381,-0.00029,0.043769,-0.004992,0.013307,0.593349,0.660012,0.293834,0.354941,-0.011981,-0.046042
332,2165571643842222,1.12117,9.858109,-0.552673,8.555488,-1.800795,-4.722879,0.034088,0.029449,-0.00029,0.043403,-0.00505,0.010955,0.59327,0.660039,0.293912,0.354958,-0.011993,-0.046069
333,2165571648786070,1.146317,9.88504,-0.534714,8.594604,-1.787836,-4.716999,0.035156,0.029449,-0.002426,0.04376,-0.007201,0.011929,0.59319,0.660065,0.293994,0.354973,-0.012005,-0.046097
334,2165571653729918,1.191208,9.888031,-0.520355,8.625327,-1.776198,-4.681006,0.034088,0.031586,-0.002426,0.044873,-0.007427,0.009837,0.593111,0.660089,0.294076,0.354995,-0.012018,-0.046127
335,2165571658673765,1.22113,9.880844,-0.474869,8.642984,-1.731785,-4.652696,0.030899,0.034775,-0.003494,0.045492,-0.008773,0.005456,0.593037,0.660103,0.294159,0.355024,-0.012031,-0.046159
336,2165571663587096,1.197189,9.875458,-0.492218,8.623631,-1.7481,-4.666603,0.029831,0.035843,-0.003494,0.045742,-0.008869,0.003979,0.592963,0.660114,0.294244,0.355055,-0.012044,-0.046192
337,2165571668500426,1.18222,9.857498,-0.472473,8.603743,-1.726283,-4.667618,0.029831,0.036911,-0.005615,0.046352,-0.011103,0.00347,0.592892,0.660123,0.294333,0.355084,-0.012058,-0.046226
338,2165571673444273,1.188202,9.898209,-0.4216,8.647172,-1.681439,-4.686519,0.02771,0.037979,-0.005615,0.045998,-0.011165,0.001133,0.592826,0.660125,0.294422,0.355118,-0.012073,-0.046262
339,2165571678266051,1.224121,9.920944,-0.411423,8.688418,-1.675554,-4.668688,0.025574,0.041168,-0.007751,0.047099,-0.013607,-0.002336,0.592763,0.660119,0.294514,0.355156,-0.012088,-0.046298
340,2165571683331969,1.241486,9.916168,-0.392868,8.697823,-1.657395,-4.650456,0.025574,0.043304,-0.007751,0.04883,-0.01387,-0.003548,0.592696,0.660111,0.294612,0.355201,-0.012103,-0.046315
341,2165571688336851,1.24028,9.970032,-0.415604,8.739211,-1.686724,-4.679055,0.025574,0.046494,-0.010956,0.051032,-0.017442,-0.005218,0.59263,0.660099,0.294719,0.355245,-0.012118,-0.046334
342,2165571693280699,1.224716,9.990387,-0.430573,8.746195,-1.703758,-4.700453,0.02771,0.04863,-0.010956,0.053991,-0.017773,-0.004679,0.59256,0.660088,0.294831,0.355289,-0.012135,-0.046353
343,2165571698224547,1.205566,10.015518,-0.405426,8.759809,-1.681562,-4.729317,0.029831,0.04863,-0.009888,0.055337,-0.016779,-0.002976,0.592487,0.66008,0.294944,0.355333,-0.012152,-0.046374
344,2165571703168394,1.198975,10.014923,-0.412613,8.755946,-1.688851,-4.731568,0.034088,0.050751,-0.007751,0.059753,-0.015055,-0.000785,0.592403,0.660078,0.29506,0.355381,-0.01217,-0.046397
345,2165571708112242,1.186417,10.014328,-0.443146,8.745889,-1.719063,-4.737609,0.035156,0.050751,-0.00882,0.060239,-0.016146,0.000156,0.592317,0.660077,0.295181,0.355425,-0.012188,-0.046423
346,2165571713056090,1.122971,10.038269,-0.455719,8.728734,-1.732819,-4.800218,0.035156,0.050751,-0.009888,0.060112,-0.017202,0.000223,0.592234,0.660075,0.295305,0.355464,-0.012206,-0.046453
347,2165571717969420,1.132538,10.026291,-0.432968,8.728543,-1.709398,-4.78405,0.036224,0.051819,-0.009888,0.061591,-0.017364,0.000506,0.592149,0.660073,0.295431,0.355505,-0.012225,-0.046486
348,2165571722913267,1.130142,9.970032,-0.456909,8.679974,-1.726514,-4.750257,0.037292,0.050751,-0.00882,0.061464,-0.016202,0.00196,0.592061,0.660075,0.295555,0.355546,-0.012243,-0.046522
349,2165571727826597,1.148102,9.997559,-0.453918,8.714198,-1.728047,-4.748868,0.038361,0.051819,-0.006683,0.063197,-0.014245,0.002146,0.591968,0.660079,0.295676,0.35559,-0.012261,-0.046561
350,2165571732739928,1.136734,9.987396,-0.450928,8.701128,-1.724089,-4.749915,0.04155,0.052887,-0.006683,0.065888,-0.014472,0.00417,0.591871,0.660087,0.295803,0.355634,-0.012279,-0.046604
351,2165571737714293,1.154694,9.938309,-0.468887,8.670828,-1.736927,-4.703506,0.04155,0.057144,-0.007751,0.069216,-0.016057,0.001811,0.591768,0.660091,0.295938,0.355684,-0.012297,-0.046651
352,2165571742658140,1.128357,9.939499,-0.473068,8.657632,-1.741053,-4.722806,0.043686,0.056091,-0.007751,0.069582,-0.015987,0.004186,0.591664,0.660099,0.296074,0.35573,-0.012315,-0.046702
353,2165571747601988,1.126556,9.910782,-0.489227,8.63273,-1.754148,-4.704361,0.044754,0.056091,-0.006683,0.070319,-0.014956,0.005035,0.591556,0.66011,0.296209,0.355776,-0.012334,-0.04676
354,2165571752545836,1.150497,9.882645,-0.493423,8.62448,-1.756044,-4.665643,0.045807,0.057144,-0.007751,0.071648,-0.016171,0.005372,0.591446,0.660122,0.296358,0.355811,-0.012355,-0.046826
355,2165571757459166,1.133148,9.880844,-0.474274,8.616844,-1.73678,-4.676937,0.047943,0.057144,-0.006683,0.072994,-0.015168,0.007098,0.59134,0.660132,0.296509,0.355845,-0.012376,-0.046897
356,2165571762372496,1.16008,9.884445,-0.487442,8.634955,-1.751813,-4.653428,0.049011,0.057144,-0.005615,0.07373,-0.014135,0.007948,0.591225,0.660149,0.296652,0.355885,-0.012398,-0.046974
357,2165571767194273,1.158875,9.887436,-0.492218,8.637452,-1.757538,-4.653185,0.047943,0.055023,-0.006683,0.071269,-0.014892,0.008352,0.591115,0.660166,0.296792,0.355919,-0.012421,-0.047057
358,2165571772046568,1.166061,9.868881,-0.512573,8.625332,-1.77657,-4.633008,0.049011,0.055023,-0.003494,0.072255,-0.011755,0.009099,0.590994,0.660193,0.296928,0.355957,-0.012445,-0.047145
359,2165571777112486,1.184021,9.907776,-0.544296,8.664681,-1.814733,-4.635958,0.0522,0.053955,-0.002426,0.07333,-0.010649,0.012296,0.590852,0.660236,0.297069,0.355994,-0.012472,-0.04724
360,2165571782117369,1.19838,9.88623,-0.54071,8.656916,-1.810301,-4.609406,0.054337,0.049698,-0.003494,0.070956,-0.011229,0.016544,0.590712,0.660286,0.2972,0.356025,-0.012499,-0.047339
361,2165571787091734,1.200775,9.914368,-0.579605,8.677622,-1.854074,-4.618856,0.054337,0.04863,-0.001358,0.070338,-0.008971,0.017067,0.590563,0.660346,0.297331,0.356052,-0.01253,-0.047424
362,2165571792035582,1.206757,9.933517,-0.602356,8.69488,-1.880931,-4.621157,0.055405,0.045425,-0.001358,0.068336,-0.008591,0.019784,0.59041,0.660416,0.297458,0.35607,-0.012563,-0.047511
363,2165571796979429,1.212753,9.931122,-0.581406,8.699734,-1.861654,-4.613525,0.0522,0.042236,-0.00029,0.06404,-0.007037,0.018925,0.590268,0.660479,0.297571,0.356092,-0.012598,-0.047599
364,2165571801923277,1.236694,9.917358,-0.61792,8.698638,-1.898715,-4.581917,0.0522,0.0401,-0.001358,0.062171,-0.007822,0.020205,0.590117,0.660556,0.29768,0.356111,-0.012633,-0.047686
365,2165571806867125,1.185806,9.910782,-0.623306,8.664575,-1.903313,-4.617436,0.050079,0.0401,-0.002426,0.060834,-0.008816,0.01853,0.589976,0.660623,0.297803,0.356116,-0.012669,-0.047773
366,2165571811810972,1.174438,9.932922,-0.634674,8.675622,-1.918477,-4.6366,0.045807,0.037979,-0.00029,0.056929,-0.006309,0.016127,0.589843,0.660687,0.29792,0.35612,-0.012706,-0.047859
367,2165571816754820,1.210953,9.943695,-0.648438,8.704256,-1.936135,-4.609947,0.044754,0.034775,-0.00029,0.05372,-0.005871,0.017089,0.589706,0.66076,0.298024,0.356127,-0.012744,-0.047945
368,2165571821698668,1.241486,9.957458,-0.669998,8.73093,-1.961981,-4.589403,0.045807,0.035843,-0.00029,0.055185,-0.006029,0.017361,0.589557,0.66084,0.298124,0.356139,-0.012783,-0.04803
369,2165571826611998,1.224121,9.96405,-0.652039,8.729247,-1.946353,-4.606291,0.044754,0.034775,0.001831,0.053967,-0.003759,0.017002,0.589418,0.660914,0.298221,0.356151,-0.012821,-0.048115
370,2165571831555846,1.219925,9.969437,-0.659225,8.731027,-1.955845,-4.610466,0.042618,0.032654,0.002899,0.051151,-0.002372,0.016401,0.589282,0.660988,0.298313,0.356162,-0.012859,-0.0482
371,2165571836499693,1.211548,9.976013,-0.663406,8.731807,-1.962207,-4.6189,0.040482,0.033707,0.000763,0.050537,-0.004566,0.014167,0.589152,0.661056,0.29841,0.35617,-0.012897,-0.048287
372,2165571841443541,1.20137,9.9814,-0.629883,8.735074,-1.930744,-4.63024,0.038361,0.031586,0.001831,0.04773,-0.003179,0.013576,0.589037,0.661112,0.2985,0.35618,-0.012935,-0.048377
373,2165571846387388,1.192993,9.985596,-0.635284,8.733842,-1.937673,-4.637276,0.038361,0.034775,0.000763,0.050198,-0.004643,0.011836,0.588922,0.661164,0.298598,0.356191,-0.012973,-0.04847
374,2165571851331236,1.197189,9.980209,-0.61792,8.734744,-1.920987,-4.629645,0.038361,0.036911,-0.001358,0.051682,-0.007016,0.010749,0.588811,0.661208,0.2987,0.356207,-0.013011,-0.048565
375,2165571856244566,1.187607,9.949081,-0.639465,8.702201,-1.9393,-4.616767,0.036224,0.036911,-0.00029,0.050595,-0.005902,0.008945,0.588699,0.661255,0.298801,0.356222,-0.013048,-0.048663
376,2165571861096861,1.165466,9.948486,-0.601761,8.694493,-1.902119,-4.634723,0.035156,0.036911,-0.00029,0.049987,-0.005873,0.008076,0.588603,0.661287,0.298901,0.356237,-0.013086,-0.048765
377,2165571866071226,1.172043,9.900009,-0.581406,8.662031,-1.876679,-4.600987,0.035156,0.037979,-0.00029,0.050856,-0.006007,0.007482,0.588508,0.661314,0.298999,0.35626,-0.013124,-0.048869
378,2165571871015074,1.175644,9.868881,-0.57782,8.639999,-1.870153,-4.578617,0.036224,0.037979,0.000763,0.051586,-0.004987,0.008316,0.58841,0.661344,0.299094,0.356287,-0.013163,-0.048976
379,2165571876080992,1.191208,9.873672,-0.595169,8.651429,-1.88956,-4.56564,0.038361,0.034775,0.001831,0.050313,-0.003564,0.011838,0.588302,0.661387,0.299184,0.356311,-0.013202,-0.049085
380,2165571880933287,1.210358,9.872467,-0.565247,8.665509,-1.86119,-4.549168,0.036224,0.030518,-0.001358,0.045249,-0.006125,0.012663,0.588212,0.661421,0.299258,0.356333,-0.013243,-0.049196
381,2165571885877135,1.224716,9.846725,-0.595169,8.649733,-1.889167,-4.51944,0.036224,0.031586,-0.00029,0.046245,-0.005203,0.012011,0.588109,0.661465,0.299333,0.356359,-0.013293,-0.049271
382,2165571890790465,1.213943,9.880249,-0.595779,8.671478,-1.895098,-4.545564,0.036224,0.029449,0.001831,0.044754,-0.002823,0.013109,0.58801,0.661509,0.299405,0.356381,-0.013345,-0.049349
383,2165571895734312,1.219925,9.864685,-0.61972,8.659737,-1.918326,-4.529149,0.035156,0.023056,0.001831,0.038936,-0.00197,0.015843,0.587909,0.661564,0.299467,0.356392,-0.013398,-0.04943
384,2165571900647642,1.207962,9.857498,-0.616714,8.647828,-1.915352,-4.533897,0.031967,0.019867,0.001831,0.034527,-0.001482,0.01502,0.587819,0.661615,0.299524,0.356398,-0.013452,-0.049514
385,2165571905591490,1.228912,9.877853,-0.614929,8.67684,-1.917909,-4.527059,0.029831,0.018799,0.000763,0.032318,-0.002352,0.013925,0.587732,0.661664,0.299575,0.356407,-0.013509,-0.049601
386,2165571910535338,1.197189,9.908386,-0.61911,8.683587,-1.926213,-4.569214,0.026642,0.01561,0.000763,0.02791,-0.001865,0.0131,0.587659,0.661707,0.299627,0.356405,-0.013566,-0.049692
387,2165571915479185,1.252853,9.914963,-0.628693,8.719481,-1.939089,-4.525715,0.026642,0.011337,-0.00029,0.024299,-0.002352,0.015571,0.587579,0.661762,0.299662,0.356406,-0.013624,-0.049785
388,2165571920392515,1.226517,9.904785,-0.596375,8.700263,-1.9061,-4.542769,0.026642,0.009216,-0.00029,0.022569,-0.002075,0.016768,0.587513,0.661806,0.299695,0.356403,-0.013683,-0.049881
389,2165571925366881,1.215149,9.940109,-0.600555,8.722305,-1.915554,-4.571131,0.026642,0.009216,0.001831,0.022821,3e-05,0.016651,0.587448,0.661851,0.299731,0.356399,-0.013743,-0.049982
390,2165571930310728,1.223526,9.946686,-0.623306,8.729833,-1.940187,-4.565954,0.026642,0.009216,0.000763,0.022693,-0.001026,0.016712,0.587377,0.661901,0.299768,0.356392,-0.013803,-0.050085
391,2165571935254576,1.217529,9.960449,-0.583801,8.742499,-1.903466,-4.580291,0.025574,0.00708,0.000763,0.020346,-0.000722,0.017037,0.587321,0.661939,0.299798,0.356386,-0.013864,-0.050192
392,2165571940198424,1.222931,9.998169,-0.576019,8.777379,-1.901613,-4.596993,0.025574,0.00708,0.001831,0.020473,0.000338,0.016978,0.587268,0.661976,0.299825,0.356384,-0.013925,-0.0503
393,2165571945142271,1.210953,9.996964,-0.588593,8.768218,-1.914458,-4.6049,0.025574,0.00708,0.002899,0.0206,0.001399,0.016918,0.587212,0.662014,0.299854,0.356379,-0.013986,-0.05041
394,2165571950086119,1.189407,9.969437,-0.565247,8.736532,-1.887845,-4.60792,0.026642,0.00708,0.001831,0.021076,0.00032,0.017859,0.587165,0.662046,0.299888,0.35637,-0.014047,-0.050523
395,2165571955029967,1.175034,9.997559,-0.581406,8.749583,-1.907631,-4.634182,0.026642,0.006012,-0.00029,0.019951,-0.00164,0.018582,0.587119,0.662078,0.299931,0.35635,-0.014108,-0.050636
396,2165571959882262,1.191208,10.016724,-0.578415,8.774903,-1.908107,-4.631254,0.025574,0.008148,0.002899,0.02147,0.001267,0.016318,0.587071,0.662109,0.299965,0.356343,-0.014168,-0.050749
397,2165571964795592,1.193588,10.001755,-0.535324,8.769353,-1.864003,-4.622779,0.026642,0.00708,0.003967,0.02133,0.002444,0.01774,0.587031,0.662132,0.299991,0.356343,-0.014228,-0.050861
398,2165571969617369,1.171448,9.960449,-0.553268,8.721194,-1.876333,-4.616162,0.026642,0.008148,0.002899,0.022073,0.001248,0.0172,0.58699,0.662156,0.300027,0.356336,-0.014287,-0.050972
399,2165571974835875,1.15947,9.964645,-0.543106,8.719328,-1.866947,-4.628334,0.02771,0.009216,0.002899,0.023548,0.001088,0.017479,0.586947,0.66218,0.30007,0.356328,-0.014346,-0.05108
400,2165571979871275,1.154083,9.926331,-0.544296,8.685129,-1.863325,-4.610518,0.028763,0.008148,0.001831,0.023144,0.00015,0.01901,0.586905,0.662204,0.300113,0.356316,-0.014404,-0.051186
401,2165571984845640,1.185211,9.928131,-0.584396,8.699549,-1.904775,-4.582972,0.031967,0.00708,0.003967,0.024341,0.002344,0.022131,0.586843,0.662248,0.30015,0.356304,-0.014462,-0.05129
402,2165571989820006,1.158279,9.940109,-0.571228,8.695803,-1.893323,-4.612136,0.031967,0.006012,0.003967,0.023469,0.002488,0.022733,0.58679,0.662286,0.30019,0.356286,-0.01452,-0.051394
403,2165571994763853,1.178635,9.92334,-0.571823,8.693749,-1.892984,-4.585244,0.036224,0.00708,0.003967,0.026748,0.002265,0.025641,0.586727,0.662332,0.300231,0.356273,-0.01458,-0.051479
404,2165571999707701,1.207367,9.889221,-0.609543,8.677674,-1.92768,-4.539586,0.035156,0.004959,0.005035,0.024541,0.003628,0.025893,0.58665,0.662392,0.300261,0.35626,-0.01464,-0.051564
405,2165572004651549,1.204361,9.879059,-0.615524,8.666953,-1.933523,-4.535493,0.036224,0.002823,0.006104,0.02353,0.004952,0.027914,0.586572,0.662458,0.300289,0.356244,-0.014701,-0.051651
406,2165572009595396,1.203766,9.880844,-0.649643,8.663934,-1.968891,-4.534525,0.035156,0.001755,0.005035,0.021927,0.00406,0.027697,0.586489,0.66253,0.30032,0.35622,-0.014762,-0.05174
407,2165572014539244,1.189407,9.852722,-0.650833,8.632661,-1.967418,-4.529985,0.037292,0.000687,0.006104,0.022392,0.005224,0.029995,0.586404,0.662605,0.300353,0.356192,-0.014824,-0.051833
408,2165572019452574,1.197189,9.864685,-0.647247,8.647105,-1.966989,-4.530228,0.036224,-0.002502,0.007156,0.019313,0.006714,0.030847,0.586324,0.662682,0.300376,0.356163,-0.014886,-0.051929
409,2165572024365904,1.188812,9.858704,-0.632889,8.639007,-1.952975,-4.534439,0.033035,-0.004639,0.007156,0.015767,0.007064,0.02942,0.586255,0.66275,0.300393,0.356133,-0.014948,-0.05203
410,2165572029279234,1.201981,9.88623,-0.641861,8.66757,-1.96706,-4.538488,0.031967,-0.00676,0.008224,0.013562,0.008429,0.029669,0.586186,0.662822,0.300402,0.356104,-0.015011,-0.052135
411,2165572034192564,1.18042,9.898804,-0.63588,8.666126,-1.963474,-4.563655,0.030899,-0.00676,0.008224,0.012959,0.008454,0.028787,0.586125,0.662888,0.300416,0.356071,-0.015074,-0.052245
412,2165572039105894,1.174438,9.896408,-0.620911,8.662346,-1.949219,-4.56816,0.029831,-0.007828,0.009293,0.011613,0.00968,0.028442,0.586071,0.662949,0.300425,0.35604,-0.015137,-0.05236
413,2165572044019224,1.173248,9.910782,-0.615524,8.673801,-1.946742,-4.577589,0.029831,-0.007828,0.010361,0.011742,0.010743,0.028377,0.586018,0.663008,0.300433,0.35601,-0.015201,-0.052479
414,2165572048932554,1.150497,9.938309,-0.615524,8.683209,-1.950777,-4.611833,0.031967,-0.00676,0.009293,0.013695,0.009507,0.029597,0.585967,0.663065,0.300452,0.355973,-0.015264,-0.052601
415,2165572053845885,1.16127,9.953873,-0.610733,8.702463,-1.94904,-4.611906,0.031967,-0.004639,0.007156,0.01517,0.007113,0.028529,0.585917,0.663117,0.300474,0.35594,-0.015326,-0.052727
416,2165572058759215,1.191803,9.986786,-0.595779,8.748285,-1.94004,-4.605953,0.035156,-0.002502,0.006104,0.018592,0.005732,0.030016,0.585861,0.663169,0.300494,0.355916,-0.015388,-0.052856
417,2165572063580992,1.184616,9.963455,-0.622116,8.721967,-1.96385,-4.596877,0.035156,-0.001434,0.006104,0.019463,0.005595,0.029413,0.5858,0.663226,0.30052,0.355889,-0.01545,-0.052988
418,2165572068585875,1.148697,9.940109,-0.610733,8.683987,-1.949433,-4.613725,0.034088,-0.000381,0.005035,0.019589,0.00442,0.028004,0.585747,0.663275,0.300557,0.355855,-0.015509,-0.053121
419,2165572073529722,1.149307,9.967041,-0.591583,8.708633,-1.934764,-4.629164,0.033035,-0.000381,0.008224,0.019376,0.007604,0.026942,0.585692,0.663321,0.30059,0.355831,-0.015567,-0.053257
420,2165572078473570,1.169647,9.955063,-0.634079,8.705239,-1.976255,-4.602923,0.031967,-0.000381,0.008224,0.018771,0.007627,0.02606,0.585649,0.663364,0.300613,0.355804,-0.015622,-0.053392
421,2165572083386900,1.197784,9.969437,-0.638275,8.732331,-1.983802,-4.587212,0.030899,0.000687,0.006104,0.018784,0.005407,0.024707,0.585587,0.663417,0.300636,0.355785,-0.015677,-0.053528
422,2165572088330748,1.181625,9.957458,-0.625702,8.71493,-1.970343,-4.594184,0.030899,0.001755,0.007156,0.019781,0.006311,0.02404,0.58553,0.663466,0.300662,0.355767,-0.015729,-0.053663
423,2165572093274596,1.191803,9.953873,-0.602951,8.720413,-1.948346,-4.584969,0.031967,-0.002502,0.006104,0.016788,0.005821,0.027381,0.585479,0.663514,0.300679,0.355747,-0.015768,-0.053786
424,2165572098218443,1.173843,9.935913,-0.612534,8.694355,-1.955865,-4.588954,0.030899,-0.003571,0.006104,0.015312,0.005987,0.027101,0.585432,0.663562,0.300698,0.35572,-0.015805,-0.053911
425,2165572103162291,1.181625,9.919754,-0.64006,8.682088,-1.981924,-4.571745,0.028763,-0.00676,0.005035,0.011374,0.005396,0.027201,0.585382,0.663617,0.300713,0.355686,-0.015842,-0.054037
426,2165572108106138,1.167862,9.889832,-0.67778,8.645154,-2.015934,-4.563924,0.02771,-0.007828,0.006104,0.010037,0.006621,0.026866,0.585326,0.66368,0.300732,0.355644,-0.015878,-0.054166
427,2165572113049986,1.179825,9.869476,-0.691544,8.63343,-2.028139,-4.541741,0.028763,-0.007828,0.006104,0.010634,0.006608,0.027732,0.585262,0.663751,0.300749,0.355603,-0.015914,-0.054298
428,2165572117993834,1.215744,9.893417,-0.671188,8.675392,-2.012881,-4.527044,0.025574,-0.011032,0.005035,0.00609,0.006037,0.026973,0.585208,0.663816,0.300749,0.35557,-0.015949,-0.054433
429,2165572122937681,1.223526,9.874268,-0.652634,8.666127,-1.993129,-4.511072,0.026642,-0.008896,0.003967,0.008309,0.004678,0.026716,0.585155,0.663876,0.30075,0.355544,-0.015984,-0.054572
430,2165572127881529,1.183426,9.873062,-0.675385,8.639455,-2.015677,-4.542101,0.025574,-0.008896,0.003967,0.007706,0.0047,0.025835,0.585104,0.663936,0.300763,0.355504,-0.016019,-0.054714
431,2165572132794859,1.172043,9.892822,-0.705902,8.645126,-2.049263,-4.560949,0.024506,-0.013153,0.005035,0.00376,0.006354,0.027284,0.585053,0.664004,0.300774,0.355453,-0.016053,-0.054858
432,2165572137738707,1.188812,9.885635,-0.699326,8.649146,-2.042984,-4.543842,0.023438,-0.015289,0.005035,0.001416,0.006663,0.027605,0.585004,0.664072,0.300776,0.355404,-0.016088,-0.055004
433,2165572142682554,1.173248,9.872467,-0.702911,8.628747,-2.045336,-4.549436,0.022385,-0.016357,0.005035,-4.9e-05,0.006829,0.027338,0.584959,0.664139,0.300779,0.35535,-0.016123,-0.055152
434,2165572147626402,1.191803,9.886841,-0.687347,8.652403,-2.032985,-4.543747,0.021317,-0.018478,0.003967,-0.002509,0.006078,0.027719,0.584921,0.664203,0.300774,0.3553,-0.016158,-0.055301
435,2165572152570250,1.205566,9.893417,-0.678375,8.66617,-2.025944,-4.537198,0.01918,-0.017426,0.002899,-0.002988,0.004916,0.025433,0.584887,0.66426,0.300764,0.355255,-0.016193,-0.055451
436,2165572157514097,1.184616,9.875458,-0.690948,8.637748,-2.036449,-4.543991,0.01918,-0.016357,0.005035,-0.001857,0.006892,0.024695,0.58485,0.66432,0.30076,0.35521,-0.016229,-0.055603
437,2165572162335875,1.18222,9.910782,-0.751999,8.6574,-2.102605,-4.562398,0.020248,-0.017426,0.005035,-0.002121,0.007024,0.026176,0.584799,0.664394,0.300764,0.355152,-0.016265,-0.055757
438,2165572167310240,1.164261,9.926331,-0.733444,8.661732,-2.086748,-4.58753,0.017044,-0.015289,0.006104,-0.002065,0.007848,0.022263,0.584758,0.664456,0.300769,0.355098,-0.0163,-0.055911
439,2165572172132017,1.170258,9.934723,-0.71907,8.67333,-2.074361,-4.588646,0.017044,-0.015289,0.005035,-0.002192,0.006792,0.022331,0.584723,0.664512,0.300772,0.355048,-0.016337,-0.056066
440,2165572177197935,1.160675,9.940704,-0.705307,8.674078,-2.061876,-4.601239,0.017044,-0.015289,0.003967,-0.002318,0.005738,0.022399,0.584693,0.664565,0.300778,0.354994,-0.016374,-0.056222
441,2165572182141783,1.151093,9.940109,-0.672989,8.671821,-2.029942,-4.611161,0.018112,-0.011032,0.003967,0.001758,0.005147,0.020878,0.584669,0.664605,0.300789,0.35495,-0.016405,-0.056363
442,2165572187085631,1.163071,9.972427,-0.652634,8.707185,-2.01463,-4.621069,0.01918,-0.009964,0.003967,0.003234,0.004989,0.021155,0.584647,0.66464,0.300797,0.354913,-0.016438,-0.056503
443,2165572192029478,1.137924,9.980804,-0.609543,8.70475,-1.97255,-4.649632,0.018112,-0.011032,0.002899,0.001631,0.004093,0.020946,0.584644,0.664659,0.300806,0.354873,-0.016471,-0.056646
444,2165572196973326,1.145706,10.035873,-0.595169,8.755728,-1.965743,-4.675323,0.020248,-0.005707,0.002899,0.007182,0.003341,0.019703,0.584639,0.664672,0.300822,0.354844,-0.016504,-0.056791
445,2165572201917174,1.192398,9.995178,-0.555664,8.753688,-1.921895,-4.616659,0.022385,-0.00676,0.001831,0.007409,0.002394,0.022125,0.584634,0.664685,0.300822,0.354829,-0.016536,-0.056937
446,2165572206861021,1.18042,9.995773,-0.555069,8.747382,-1.921261,-4.626991,0.024506,-0.005707,0.001831,0.00947,0.002221,0.023278,0.584626,0.664698,0.300828,0.354812,-0.016569,-0.057086
447,2165572211804869,1.183426,9.994568,-0.559265,8.747583,-1.925584,-4.62347,0.031967,-0.002502,0.002899,0.016442,0.002735,0.027545,0.584602,0.664721,0.300843,0.354795,-0.016601,-0.057236
448,2165572216748717,1.227707,9.963455,-0.521545,8.751899,-1.885168,-4.571683,0.033035,0.000687,0.001831,0.019517,0.00123,0.026696,0.584577,0.664739,0.300848,0.3548,-0.016632,-0.057388
449,2165572221692564,1.207962,9.92395,-0.571823,8.702546,-1.92985,-4.562037,0.033035,0.002823,0.000763,0.021129,-0.000115,0.025562,0.584539,0.664765,0.300868,0.354795,-0.016662,-0.05754
450,2165572226636412,1.206161,9.949081,-0.563446,8.723048,-1.925546,-4.577912,0.034088,0.001755,0.003967,0.02124,0.003191,0.026823,0.584502,0.664793,0.300883,0.354792,-0.016691,-0.057694
451,2165572231580260,1.197189,9.905396,-0.596375,8.678435,-1.952721,-4.558226,0.029831,0.001755,0.003967,0.018825,0.003255,0.023318,0.584463,0.664823,0.300899,0.354786,-0.016719,-0.057847
452,2165572236493590,1.20018,9.914368,-0.607147,8.686157,-1.965246,-4.55985,0.028763,0.000687,0.002899,0.017221,0.00236,0.023109,0.584425,0.664854,0.300915,0.354777,-0.016746,-0.058
453,2165572241406920,1.190002,9.879654,-0.650833,8.646802,-2.004534,-4.545538,0.029831,-0.000381,0.006104,0.017342,0.005668,0.024381,0.584372,0.664901,0.300933,0.354761,-0.016773,-0.058152
454,2165572246350767,1.203171,9.875458,-0.692139,8.645743,-2.046172,-4.529437,0.026642,-0.002502,0.007156,0.013932,0.007047,0.02288,0.584313,0.664958,0.300944,0.354743,-0.016798,-0.058302
455,2165572251294615,1.184021,9.895218,-0.729843,8.646263,-2.086997,-4.55373,0.026642,-0.004639,0.007156,0.012191,0.007342,0.024083,0.584249,0.665023,0.300962,0.35471,-0.016823,-0.058451
456,2165572256207945,1.166656,9.906586,-0.780731,8.639314,-2.139799,-4.571072,0.023438,-0.007828,0.008224,0.007905,0.008885,0.023169,0.584183,0.665097,0.300982,0.354664,-0.016848,-0.0586
457,2165572261121275,1.166656,9.926331,-0.79509,8.653374,-2.15773,-4.581332,0.023438,-0.011032,0.006104,0.005042,0.007227,0.025113,0.584118,0.665174,0.301003,0.354608,-0.016873,-0.058748
458,2165572265943053,1.154083,9.911377,-0.782516,8.63522,-2.143885,-4.584365,0.020248,-0.014221,0.006104,0.000636,0.007711,0.024282,0.584066,0.665245,0.301018,0.354548,-0.016898,-0.058898
459,2165572271008971,1.178635,9.911377,-0.81604,8.644675,-2.178585,-4.562223,0.01918,-0.015289,0.007156,-0.000712,0.008919,0.023933,0.584003,0.665328,0.301025,0.35449,-0.016923,-0.059047
460,2165572275830748,1.184021,9.946686,-0.836395,8.673576,-2.204778,-4.576668,0.017044,-0.016357,0.007156,-0.002791,0.009099,0.022775,0.583941,0.665411,0.301031,0.35443,-0.016948,-0.059196
461,2165572280896666,1.188812,9.935913,-0.837585,8.666922,-2.205713,-4.566912,0.013855,-0.015289,0.007156,-0.003729,0.008999,0.019546,0.583882,0.665492,0.301034,0.354375,-0.016971,-0.059314
462,2165572285901549,1.213348,9.956863,-0.811249,8.700528,-2.184005,-4.560737,0.014923,-0.017426,0.007156,-0.004861,0.009282,0.021628,0.583827,0.66557,0.301025,0.354325,-0.016995,-0.059433
463,2165572290845396,1.187607,9.962845,-0.805862,8.690924,-2.180047,-4.586209,0.014923,-0.019547,0.005035,-0.006841,0.007476,0.022966,0.583782,0.665643,0.301023,0.354264,-0.017019,-0.059554
464,2165572295758726,1.209152,9.941299,-0.744812,8.692478,-2.117742,-4.560956,0.014923,-0.017426,0.005035,-0.005111,0.007188,0.02177,0.583748,0.665701,0.30101,0.354223,-0.017043,-0.059677
465,2165572300672056,1.224716,9.946091,-0.720871,8.707674,-2.095843,-4.552843,0.018112,-0.014221,0.006104,-0.00056,0.007769,0.022514,0.58371,0.665757,0.300996,0.354193,-0.017067,-0.0598
466,2165572305615904,1.247467,9.948486,-0.69812,8.72484,-2.074899,-4.537384,0.01918,-0.014221,0.005035,-8e-05,0.006699,0.023464,0.583674,0.665809,0.300976,0.35417,-0.01709,-0.059925
467,2165572310559752,1.236694,9.915558,-0.685562,8.693006,-2.058669,-4.528916,0.020248,-0.014221,0.003967,0.0004,0.00563,0.024415,0.583641,0.665859,0.300959,0.354144,-0.017113,-0.06005
468,2165572315503599,1.224716,9.911377,-0.681366,8.682886,-2.054599,-4.537147,0.021317,-0.015289,0.003967,0.00014,0.005767,0.025897,0.583611,0.665909,0.300943,0.354114,-0.017136,-0.060177
469,2165572320416929,1.195984,9.876663,-0.67717,8.638511,-2.045926,-4.541771,0.022385,-0.0121,0.003967,0.003344,0.005317,0.024976,0.583581,0.665953,0.30094,0.354083,-0.017159,-0.060303
470,2165572325360777,1.196594,9.897614,-0.657425,8.658,-2.029743,-4.554758,0.022385,-0.0121,0.002899,0.003217,0.004261,0.025048,0.583558,0.665991,0.300936,0.354052,-0.017182,-0.060428
471,2165572330304625,1.222931,9.872467,-0.668793,8.650786,-2.038636,-4.518429,0.021317,-0.0121,0.003967,0.002741,0.005334,0.024096,0.583528,0.666035,0.300923,0.35403,-0.017206,-0.060554
472,2165572335248472,1.21933,9.886841,-0.693329,8.657083,-2.065806,-4.528184,0.022385,-0.014221,0.006104,0.00188,0.007733,0.026024,0.583491,0.666089,0.300909,0.354002,-0.01723,-0.060681
473,2165572340192320,1.182816,9.908981,-0.69693,8.653599,-2.07245,-4.570837,0.01918,-0.013153,0.003967,0.000673,0.005511,0.02293,0.583466,0.666131,0.300907,0.353964,-0.017255,-0.060808
474,2165572345105650,1.185806,9.913773,-0.71788,8.656402,-2.094385,-4.569968,0.017044,-0.0121,0.002899,0.000188,0.004336,0.020651,0.58344,0.666174,0.300909,0.353926,-0.01728,-0.060936
475,2165572350049498,1.211548,9.913162,-0.733444,8.668344,-2.110775,-4.547651,0.018112,-0.0121,0.002899,0.000797,0.004326,0.021529,0.583404,0.666225,0.300907,0.353892,-0.017307,-0.061065
476,2165572354993346,1.225922,9.911377,-0.701721,8.6785,-2.079945,-4.537439,0.014923,-0.014221,0.002899,-0.002741,0.004659,0.020103,0.583381,0.666267,0.300891,0.353865,-0.017333,-0.061195
477,2165572359906676,1.243866,9.898804,-0.681366,8.680503,-2.059049,-4.51743,0.015991,-0.014221,0.003967,-0.002003,0.005706,0.020907,0.583358,0.666308,0.300866,0.353847,-0.01736,-0.061326
478,2165572364820006,1.242081,9.920349,-0.693939,8.695174,-2.075067,-4.530543,0.014923,-0.0121,0.000763,-0.001269,0.002254,0.019053,0.583336,0.666345,0.300852,0.353825,-0.017386,-0.061459
479,2165572369824888,1.243866,9.90239,-0.681961,8.682291,-2.061485,-4.520788,0.017044,-0.013153,0.002899,-0.000659,0.004491,0.021244,0.583324,0.666396,0.300807,0.353785,-0.017413,-0.061594
480,2165572374829771,1.224716,9.920349,-0.721466,8.681153,-2.103581,-4.543817,0.018112,-0.016357,0.001831,-0.002788,0.003867,0.024005,0.583289,0.666429,0.30081,0.353779,-0.017439,-0.061731
481,2165572379682066,1.212753,9.940109,-0.707703,8.691698,-2.093118,-4.566252,0.01918,-0.016357,0.001831,-0.002178,0.003857,0.024883,0.583265,0.666475,0.300801,0.35374,-0.017466,-0.06187
482,2165572384595396,1.202576,9.938309,-0.669388,8.688726,-2.055192,-4.576746,0.020248,-0.015289,0.001831,-0.0007,0.003698,0.025158,0.58325,0.666511,0.300792,0.353705,-0.01749,-0.061986
483,2165572389539244,1.203766,9.931122,-0.700516,8.679444,-2.085539,-4.569981,0.021317,-0.015289,0.001831,-9e-05,0.003688,0.026037,0.583225,0.666556,0.300788,0.353664,-0.017515,-0.062105
484,2165572394483092,1.224121,9.928131,-0.668793,8.692059,-2.054609,-4.554143,0.023438,-0.014221,0.002899,0.002116,0.004576,0.027103,0.583199,0.666599,0.300776,0.353636,-0.01754,-0.062224
485,2165572399457457,1.198975,9.965836,-0.661606,8.70911,-2.052776,-4.596795,0.025574,-0.008896,0.000763,0.007407,0.001699,0.026,0.583176,0.666632,0.300783,0.353605,-0.017565,-0.062343
486,2165572404370787,1.18042,9.934723,-0.691544,8.66953,-2.078225,-4.592466,0.02771,-0.007828,-0.001358,0.009236,-0.00057,0.027301,0.583145,0.666672,0.300805,0.353564,-0.01759,-0.06246
487,2165572409314635,1.168457,9.927536,-0.686157,8.657413,-2.072035,-4.598691,0.028763,-0.007828,-0.00029,0.009965,0.00048,0.028092,0.583114,0.666711,0.300828,0.353521,-0.017615,-0.062576
488,2165572414258482,1.171448,9.925735,-0.67717,8.658554,-2.063316,-4.596001,0.029831,-0.009964,0.001831,0.009093,0.002869,0.030027,0.583083,0.666753,0.300843,0.35348,-0.017639,-0.06269
489,2165572419202330,1.174438,9.927536,-0.674179,8.661899,-2.061105,-4.594886,0.030899,-0.008896,0.002899,0.010699,0.00377,0.030226,0.583049,0.666796,0.300857,0.353442,-0.017664,-0.062804
490,2165572424146178,1.157089,9.910172,-0.708298,8.633681,-2.092826,-4.596943,0.034088,-0.007828,0.001831,0.013255,0.002535,0.032319,0.583004,0.666849,0.300886,0.353394,-0.017688,-0.062916
491,2165572429059508,1.161865,9.910172,-0.708298,8.636262,-2.093407,-4.593005,0.034088,-0.007828,0.001831,0.013257,0.002541,0.032318,0.582958,0.666901,0.300913,0.353347,-0.017712,-0.063028
492,2165572434003355,1.192398,9.893417,-0.727448,8.637524,-2.111295,-4.557008,0.034088,-0.00676,0.003967,0.014384,0.004513,0.031562,0.5829,0.666963,0.300932,0.35331,-0.017735,-0.063139
493,2165572438947203,1.197189,9.899399,-0.749008,8.642284,-2.134463,-4.554922,0.031967,-0.008896,0.002899,0.011312,0.003781,0.031099,0.582842,0.667028,0.300949,0.353268,-0.017756,-0.063249
494,2165572443891051,1.187012,9.879059,-0.73822,8.620973,-2.121709,-4.552697,0.030899,-0.011032,0.003967,0.009097,0.005153,0.031351,0.582791,0.667091,0.300961,0.353224,-0.017777,-0.063361
495,2165572448834898,1.20137,9.879059,-0.747208,8.62772,-2.131711,-4.540432,0.02771,-0.0121,0.005035,0.006544,0.006397,0.029255,0.58274,0.667154,0.300964,0.353185,-0.017797,-0.063473
496,2165572453778746,1.222321,9.900604,-0.735229,8.658224,-2.124044,-4.536548,0.026642,-0.014221,0.003967,0.004085,0.005651,0.029651,0.582696,0.667215,0.300958,0.353149,-0.017815,-0.063587
497,2165572458692076,1.21814,9.930527,-0.754395,8.677471,-2.148153,-4.555807,0.025574,-0.014221,0.005035,0.003607,0.006723,0.028695,0.582649,0.667278,0.300954,0.353111,-0.017832,-0.063702
498,2165572463513853,1.246262,9.925735,-0.772949,8.686897,-2.167295,-4.528944,0.023438,-0.014221,0.005035,0.002393,0.006748,0.026938,0.582598,0.667344,0.300942,0.353079,-0.017848,-0.063819
499,2165572468579771,1.197784,9.922745,-0.784317,8.655089,-2.178534,-4.566613,0.023438,-0.015289,0.003967,0.001399,0.005845,0.027617,0.582551,0.66741,0.300945,0.353029,-0.017863,-0.063938
500,2165572473767760,1.197189,9.899399,-0.768158,8.637289,-2.160079,-4.555521,0.021317,-0.016357,0.003967,-0.000675,0.006019,0.026477,0.582512,0.667472,0.300941,0.352981,-0.017878,-0.064059
501,2165572478620054,1.209152,9.919159,-0.758575,8.660925,-2.154212,-4.557944,0.020248,-0.015289,0.003967,-0.000414,0.005883,0.024994,0.582478,0.667525,0.300934,0.352942,-0.017892,-0.064184
502,2165572483502867,1.190002,9.926941,-0.806458,8.650189,-2.203243,-4.575023,0.020248,-0.016357,0.001831,-0.001538,0.003922,0.025752,0.582438,0.667588,0.30094,0.352886,-0.017907,-0.064312
503,2165572488385679,1.203171,9.928131,-0.804672,8.658461,-2.202522,-4.5654,0.020248,-0.016357,0.001831,-0.001536,0.003926,0.025751,0.582396,0.667651,0.300942,0.352833,-0.01792,-0.064437
504,2165572493299010,1.216934,9.917953,-0.786118,8.659838,-2.183707,-4.5501,0.020248,-0.016357,0.002899,-0.001404,0.004987,0.025673,0.582356,0.667712,0.300936,0.352789,-0.017933,-0.064566
505,2165572498212340,1.179825,9.920349,-0.738831,8.645953,-2.137324,-4.585916,0.01918,-0.017426,0.003967,-0.002751,0.006207,0.025322,0.582336,0.667756,0.30093,0.352744,-0.017946,-0.064699
506,2165572503156187,1.176239,9.895218,-0.702316,8.627563,-2.097823,-4.577827,0.018112,-0.015289,0.002899,-0.00175,0.00486,0.023313,0.582327,0.667787,0.300923,0.352706,-0.01796,-0.064836
507,2165572508100035,1.176239,9.898209,-0.73822,8.625361,-2.134173,-4.577278,0.018112,-0.013153,0.003967,0.000116,0.005619,0.022027,0.582306,0.667826,0.300922,0.352667,-0.017974,-0.064976
508,2165572513013365,1.175644,9.88504,-0.744812,8.613236,-2.139248,-4.570187,0.021317,-0.014221,0.001831,0.00082,0.00363,0.02542,0.58228,0.66787,0.300927,0.352622,-0.01799,-0.06512
509,2165572517957213,1.187012,9.880844,-0.711899,8.619968,-2.106603,-4.561252,0.022385,-0.013153,0.002899,0.002427,0.00453,0.025614,0.582258,0.667909,0.300924,0.352586,-0.018008,-0.065268
510,2165572522901060,1.188812,9.88324,-0.744812,8.618718,-2.140131,-4.558949,0.022385,-0.011032,0.002899,0.004152,0.004234,0.024414,0.582226,0.667955,0.300928,0.35255,-0.018026,-0.065419
511,2165572527844908,1.191803,9.870071,-0.741821,8.609791,-2.135874,-4.549584,0.022385,-0.013153,0.001831,0.002301,0.003478,0.025691,0.582197,0.668001,0.30093,0.35251,-0.018047,-0.065575
512,2165572532788756,1.195984,9.871872,-0.751999,8.612061,-2.146877,-4.54676,0.022385,-0.014221,0.002899,0.001564,0.00469,0.026216,0.582164,0.668051,0.300928,0.35247,-0.018069,-0.065734
513,2165572537732603,1.193588,9.894608,-0.749008,8.629171,-2.147629,-4.562246,0.021317,-0.015289,0.001831,-3.9e-05,0.003795,0.026022,0.582138,0.668098,0.300925,0.352427,-0.018092,-0.065896
514,2165572542645933,1.204971,9.892822,-0.720871,8.637311,-2.120211,-4.554245,0.023438,-0.0121,0.002899,0.003892,0.004387,0.02588,0.58211,0.66814,0.300921,0.352397,-0.018117,-0.06606
515,2165572547589781,1.185806,9.910782,-0.725052,8.640248,-2.127123,-4.580085,0.023438,-0.011032,0.001831,0.004632,0.003182,0.025354,0.582086,0.668178,0.300927,0.352361,-0.018143,-0.066226
516,2165572552503111,1.187607,9.921555,-0.775345,8.643666,-2.179052,-4.581227,0.021317,-0.0121,0.003967,0.002813,0.005467,0.024057,0.582051,0.668227,0.300931,0.352321,-0.01817,-0.066395
517,2165572557477476,1.17923,9.929337,-0.73703,8.649548,-2.142547,-4.5957,0.020248,-0.0121,0.003967,0.002205,0.005478,0.023179,0.58203,0.668265,0.300931,0.352284,-0.018198,-0.066565
518,2165572562421324,1.202576,9.936508,-0.744217,8.667583,-2.15127,-4.580313,0.01918,-0.011032,0.000763,0.002078,0.002166,0.021935,0.582007,0.668301,0.300932,0.352252,-0.018226,-0.066737
519,2165572567273619,1.207367,9.947281,-0.766953,8.67607,-2.175826,-4.581052,0.017044,-0.011032,0.001831,0.000988,0.003242,0.020102,0.581982,0.66834,0.300932,0.35222,-0.018254,-0.066909
520,2165572572247984,1.227707,9.974228,-0.765167,8.709507,-2.178594,-4.579955,0.017044,-0.009964,0.000763,0.001728,0.002035,0.019576,0.581954,0.668379,0.300929,0.352193,-0.018282,-0.067082
521,2165572577191832,1.228912,9.934723,-0.730453,8.682059,-2.139099,-4.559465,0.017044,-0.009964,-0.00029,0.001602,0.000994,0.019655,0.581936,0.66841,0.300923,0.352171,-0.018309,-0.067255
522,2165572582166197,1.215744,9.956863,-0.717285,8.693879,-2.129434,-4.584062,0.018112,-0.009964,0.000763,0.00234,0.00203,0.020453,0.581921,0.668437,0.300918,0.352148,-0.018335,-0.067427
523,2165572587110045,1.215149,9.929932,-0.744217,8.668186,-2.152776,-4.567492,0.018112,-0.008896,0.001831,0.003337,0.002937,0.019768,0.581897,0.668471,0.300915,0.352125,-0.018354,-0.067576
524,2165572592053892,1.21933,9.970627,-0.734634,8.704528,-2.14957,-4.588096,0.01918,-0.011032,0.001831,0.002213,0.003234,0.021854,0.581877,0.668505,0.30091,0.3521,-0.018371,-0.067723
525,2165572596997740,1.209152,9.967636,-0.741226,8.695222,-2.155899,-4.594601,0.018112,-0.0121,-0.00029,0.000481,0.001295,0.02174,0.58186,0.668537,0.300908,0.352067,-0.018387,-0.067868
526,2165572601941588,1.219925,9.940109,-0.772339,8.674927,-2.183417,-4.568218,0.014923,-0.013153,0.001831,-0.001938,0.003569,0.019559,0.581837,0.668577,0.300899,0.352036,-0.018401,-0.068013
527,2165572606885435,1.212753,9.919754,-0.763367,8.655055,-2.172059,-4.563661,0.013855,-0.013153,0.001831,-0.002546,0.003578,0.018682,0.581819,0.668613,0.300889,0.352006,-0.018414,-0.068159
528,2165572611829283,1.216339,9.934723,-0.732834,8.672656,-2.144349,-4.571856,0.012787,-0.011032,0.002899,-0.001304,0.004343,0.016524,0.581809,0.668638,0.300875,0.351987,-0.018425,-0.068304
529,2165572616773131,1.191803,9.934113,-0.741226,8.656954,-2.152583,-4.591276,0.012787,-0.008896,0.001831,0.000302,0.002984,0.015395,0.581799,0.66866,0.300874,0.351963,-0.018436,-0.06845
530,2165572621716978,1.192398,9.926331,-0.723862,8.652857,-2.134444,-4.588016,0.013855,-0.009964,0.001831,4.6e-05,0.003128,0.016876,0.581793,0.66868,0.300869,0.351939,-0.018445,-0.068597
531,2165572626630308,1.209152,9.913162,-0.73822,8.649818,-2.147256,-4.565935,0.013855,-0.007828,0.001831,0.00178,0.002826,0.015666,0.581779,0.668704,0.300864,0.351922,-0.018452,-0.068745
532,2165572631574156,1.196594,9.887436,-0.771149,8.617636,-2.176503,-4.559279,0.015991,-0.00676,0.000763,0.003739,0.001603,0.016895,0.581753,0.668737,0.300872,0.351895,-0.018459,-0.068893
533,2165572636518004,1.182816,9.890427,-0.79509,8.609195,-2.200947,-4.570511,0.017044,-0.005707,0.000763,0.005196,0.001448,0.017162,0.581722,0.668775,0.300888,0.351862,-0.018465,-0.069044
534,2165572641461851,1.178635,9.897003,-0.783112,8.613444,-2.190415,-4.578616,0.01918,-0.00676,0.001831,0.005691,0.002643,0.019431,0.58169,0.668813,0.300902,0.351829,-0.018469,-0.069197
535,2165572646405699,1.191803,9.922745,-0.793289,8.640532,-2.204707,-4.581589,0.01918,-0.004639,0.000763,0.007285,0.001286,0.01831,0.581655,0.668852,0.300919,0.351798,-0.018473,-0.069352
536,2165572651319029,1.186417,9.917358,-0.832199,8.628349,-2.242921,-4.579837,0.018112,-0.002502,-0.00029,0.008283,-5e-05,0.016303,0.581612,0.668895,0.300946,0.351764,-0.018475,-0.069508
537,2165572656262877,1.19838,9.895218,-0.852554,8.614643,-2.26086,-4.555724,0.01918,-0.002502,0.002899,0.009278,0.003102,0.016936,0.581556,0.66895,0.300967,0.351734,-0.018478,-0.069667
538,2165572661176207,1.21814,9.880844,-0.832794,8.616451,-2.24038,-4.532766,0.020248,-0.004639,0.003967,0.008283,0.004459,0.018941,0.581502,0.669006,0.300976,0.35171,-0.01848,-0.069827
539,2165572666089537,1.215744,9.873672,-0.853745,8.606472,-2.261165,-4.529043,0.021317,-0.007828,0.003967,0.006306,0.004911,0.021623,0.581443,0.669071,0.300985,0.351677,-0.018482,-0.069986
540,2165572671002867,1.216934,9.855118,-0.839981,8.593411,-2.245874,-4.518749,0.021317,-0.011032,0.002899,0.003578,0.004315,0.023518,0.581391,0.669134,0.300988,0.351639,-0.018484,-0.070148
541,2165572675977232,1.228317,9.876053,-0.828003,8.617986,-2.238077,-4.522406,0.020248,-0.0121,0.002899,0.002102,0.004477,0.023245,0.581344,0.669195,0.300984,0.351605,-0.018486,-0.07031
542,2165572680921080,1.240875,9.829376,-0.836395,8.585858,-2.240991,-4.485195,0.021317,-0.0121,0.003967,0.002844,0.005532,0.024039,0.581289,0.669262,0.300976,0.351575,-0.01848,-0.070429
543,2165572685864928,1.224121,9.816208,-0.829803,8.566011,-2.23362,-4.492147,0.020248,-0.011032,0.006104,0.003359,0.007504,0.022391,0.581237,0.669325,0.300969,0.351547,-0.018476,-0.070548
544,2165572690808775,1.262421,9.837158,-0.842377,8.602928,-2.25069,-4.471814,0.01918,-0.0121,0.006104,0.001884,0.007666,0.022118,0.58118,0.669394,0.300951,0.351526,-0.018471,-0.070667
545,2165572695752623,1.231308,9.839554,-0.845963,8.58629,-2.255454,-4.498598,0.017044,-0.011032,0.003967,0.001272,0.005413,0.019925,0.581132,0.669454,0.300945,0.351497,-0.018468,-0.070786
546,2165572700696471,1.234894,9.850327,-0.813049,8.600713,-2.22532,-4.504507,0.014923,-0.009964,0.003967,0.000928,0.005273,0.01758,0.581095,0.669501,0.300933,0.351477,-0.018464,-0.070906
547,2165572705640318,1.217529,9.891617,-0.822617,8.622874,-2.241278,-4.541571,0.012787,-0.008896,0.002899,0.000444,0.004077,0.015305,0.581064,0.669542,0.30093,0.351453,-0.01846,-0.071027
548,2165572710584166,1.215744,9.914368,-0.834,8.638685,-2.256424,-4.555196,0.010666,-0.007828,0.003967,0.000228,0.004993,0.012876,0.581034,0.669581,0.300927,0.35143,-0.018455,-0.071149
549,2165572715528013,1.216934,9.901199,-0.783722,8.634723,-2.205079,-4.550606,0.006393,-0.004639,0.001831,0.000114,0.002444,0.00773,0.581019,0.669595,0.300929,0.351427,-0.01845,-0.071271
550,2165572720441344,1.21933,9.934723,-0.81424,8.659547,-2.240465,-4.565185,0.005341,-0.004639,0.001831,-0.000488,0.00245,0.006867,0.580999,0.669614,0.300933,0.35142,-0.018446,-0.071392
551,2165572725385191,1.219925,9.934113,-0.786713,8.662675,-2.213397,-4.56646,0.003204,-0.001434,0.002899,0.00102,0.003058,0.003215,0.580989,0.669623,0.30093,0.351422,-0.018442,-0.071514
552,2165572730329039,1.203766,9.970627,-0.790894,8.682575,-2.222724,-4.60006,0.003204,0.000687,0.000763,0.002482,0.000639,0.00218,0.580985,0.669628,0.300936,0.351416,-0.018439,-0.071636
553,2165572735272887,1.188812,9.952072,-0.774734,8.660926,-2.203924,-4.603061,0.002136,0.002823,0.002899,0.003863,0.002452,-7.3e-05,0.580985,0.669627,0.300938,0.351414,-0.018436,-0.071755
554,2165572740216734,1.213348,9.944901,-0.736435,8.673787,-2.165017,-4.581909,0.0,0.003891,0.001831,0.003379,0.001253,-0.002347,0.580997,0.669616,0.30093,0.351424,-0.018432,-0.071874
555,2165572745160582,1.230698,9.966446,-0.751389,8.699366,-2.182975,-4.578754,0.001068,0.002823,-0.00029,0.002866,-0.000699,-0.000701,0.581003,0.66961,0.300923,0.351431,-0.018427,-0.071992
556,2165572750104429,1.209763,9.935913,-0.745407,8.663353,-2.172471,-4.579114,0.002136,0.000687,0.000763,0.001871,0.000645,0.001304,0.581009,0.669604,0.30092,0.351435,-0.018421,-0.072109
557,2165572755048277,1.225311,9.949081,-0.763962,8.680649,-2.192959,-4.572366,0.003204,0.002823,0.001831,0.004344,0.001389,0.000886,0.581006,0.669606,0.300914,0.351441,-0.018414,-0.072228
558,2165572759870054,1.233093,9.929337,-0.750198,8.670712,-2.176709,-4.555862,0.003204,0.001755,0.001831,0.003478,0.001542,0.001491,0.581005,0.669606,0.300905,0.351451,-0.018406,-0.072346
559,2165572764844420,1.227112,9.931732,-0.734634,8.671077,-2.161662,-4.563357,0.005341,0.003891,0.000763,0.006304,0.000167,0.002117,0.581007,0.669603,0.300897,0.351458,-0.018397,-0.072465
560,2165572769788267,1.231903,9.920944,-0.71608,8.66728,-2.141961,-4.554767,0.00853,0.004959,0.001831,0.009123,0.001052,0.004045,0.581007,0.669603,0.300887,0.351469,-0.018388,-0.072583
561,2165572774732115,1.216934,9.92215,-0.746002,8.656063,-2.171736,-4.565378,0.00853,0.004959,-0.00029,0.008867,-0.001047,0.00421,0.581003,0.669606,0.300887,0.351469,-0.01838,-0.072699
562,2165572779675963,1.210953,9.917953,-0.805862,8.641969,-2.230609,-4.563165,0.010666,0.006012,-0.001358,0.010813,-0.002266,0.005449,0.580982,0.669627,0.300899,0.351454,-0.01837,-0.072798
563,2165572784619810,1.191803,9.882645,-0.824417,8.600324,-2.244076,-4.556898,0.010666,0.008148,-0.00029,0.012675,-0.001516,0.004156,0.580948,0.669645,0.300931,0.351448,-0.018362,-0.072892
564,2165572789594176,1.197784,9.897614,-0.804062,8.618329,-2.226374,-4.561987,0.009598,0.006012,0.000763,0.010459,-0.000161,0.004408,0.580929,0.669664,0.300941,0.351435,-0.018356,-0.072981
565,2165572794538023,1.206161,9.886841,-0.845963,8.609258,-2.266763,-4.54559,0.010666,0.003891,-0.00029,0.009221,-0.000902,0.006568,0.580896,0.669695,0.300957,0.351415,-0.01835,-0.073067
566,2165572799481871,1.199585,9.858109,-0.866318,8.579698,-2.283176,-4.532968,0.00853,0.001755,-0.001358,0.006138,-0.00164,0.006109,0.580862,0.669729,0.300977,0.351391,-0.018346,-0.073147
567,2165572804425719,1.16127,9.889832,-0.884872,8.581278,-2.306222,-4.580735,0.009598,-0.002502,0.001831,0.00368,0.002125,0.009147,0.580825,0.669765,0.301007,0.351356,-0.018343,-0.073223
568,2165572809369566,1.18103,9.867676,-0.899231,8.572812,-2.317944,-4.550655,0.007462,-0.004639,0.003967,0.000984,0.004558,0.008438,0.580782,0.669807,0.301028,0.35133,-0.018341,-0.073291
569,2165572814282896,1.191803,9.862289,-0.905228,8.573822,-2.323724,-4.538103,0.004272,-0.004639,0.002899,-0.00097,0.003517,0.005904,0.580742,0.669845,0.301046,0.351308,-0.018339,-0.073351
570,2165572819226744,1.176834,9.898804,-0.87709,8.598279,-2.301364,-4.573161,0.003204,-0.007828,0.002899,-0.004168,0.003983,0.006834,0.580715,0.669872,0.301065,0.351285,-0.018337,-0.073407
571,2165572824170592,1.198975,9.887436,-0.862732,8.603412,-2.286029,-4.549571,0.003204,-0.00676,0.002899,-0.003302,0.003829,0.006229,0.580688,0.669898,0.301076,0.351271,-0.018336,-0.07346
572,2165572829114439,1.187012,9.926941,-0.847168,8.630486,-2.276529,-4.582893,0.003204,-0.003571,0.003967,-0.000585,0.004426,0.004338,0.580668,0.669917,0.301087,0.351258,-0.018336,-0.073511
573,2165572834058287,1.173843,9.950882,-0.807068,8.647249,-2.240205,-4.610401,0.004272,-0.001434,0.002899,0.00163,0.003056,0.004088,0.580662,0.669924,0.301098,0.351245,-0.018335,-0.073562
574,2165572838971617,1.201981,9.989792,-0.765762,8.699916,-2.205016,-4.612622,0.005341,0.001755,0.001831,0.0047,0.001535,0.003242,0.580663,0.669923,0.3011,0.351243,-0.018335,-0.073613
575,2165572843915465,1.204971,9.978409,-0.757385,8.693423,-2.195087,-4.604365,0.00853,0.006012,0.000763,0.009849,-0.000151,0.003531,0.580662,0.669924,0.301103,0.351241,-0.018336,-0.073664
576,2165572848859312,1.204361,9.955063,-0.753189,8.674886,-2.187655,-4.591461,0.012787,0.010284,0.000763,0.015749,-0.000786,0.004604,0.580645,0.669923,0.301125,0.351252,-0.018337,-0.073717
577,2165572853803160,1.217529,9.946686,-0.733444,8.678342,-2.167141,-4.576773,0.015991,0.013474,0.000763,0.020169,-0.001261,0.005427,0.580624,0.669919,0.30115,0.351274,-0.018338,-0.073771
578,2165572858747008,1.224121,9.942505,-0.711899,8.68167,-2.145475,-4.569897,0.020248,0.01561,0.000763,0.024336,-0.001588,0.007711,0.580598,0.669915,0.301176,0.3513,-0.01834,-0.073828
579,2165572863538267,1.23909,9.936508,-0.674774,8.690241,-2.108068,-4.556379,0.020248,0.016663,-0.001358,0.024933,-0.003839,0.007285,0.580583,0.669901,0.301197,0.351335,-0.018342,-0.073889
580,2165572868604185,1.216339,9.897003,-0.643661,8.649517,-2.071429,-4.554071,0.022385,0.022003,-0.001358,0.030488,-0.00462,0.006018,0.580567,0.669877,0.301233,0.351377,-0.018345,-0.073953
581,2165572873517515,1.237885,9.885635,-0.692734,8.64778,-2.118838,-4.523788,0.023438,0.024124,0.000763,0.033066,-0.002832,0.005523,0.580509,0.66985,0.301309,0.35146,-0.018348,-0.074021
582,2165572878461363,1.214539,9.897614,-0.705307,8.642562,-2.133328,-4.548675,0.026642,0.023056,-0.00029,0.033902,-0.003735,0.00884,0.580492,0.669865,0.301304,0.351463,-0.018353,-0.074092
583,2165572883405211,1.195984,9.889832,-0.757385,8.619826,-2.184023,-4.554291,0.026642,0.019867,-0.00029,0.031313,-0.003273,0.010648,0.580444,0.669876,0.301356,0.351477,-0.018354,-0.074102
584,2165572888349058,1.186417,9.877853,-0.782516,8.602041,-2.207483,-4.552369,0.024506,0.017731,-0.00029,0.028358,-0.002953,0.010106,0.580396,0.669891,0.301408,0.351484,-0.018357,-0.074112
585,2165572893292906,1.206161,9.887436,-0.789703,8.620482,-2.216702,-4.540191,0.023438,0.013474,0.003967,0.024806,0.00188,0.011302,0.580345,0.669914,0.301441,0.351494,-0.018359,-0.074123
586,2165572898236754,1.204971,9.895218,-0.806458,8.624271,-2.235103,-4.543552,0.021317,0.010284,0.005035,0.021134,0.003408,0.011282,0.580295,0.669942,0.301469,0.351499,-0.018362,-0.074133
587,2165572903180601,1.190598,9.905991,-0.846558,8.620049,-2.276926,-4.557779,0.01918,0.004959,0.003967,0.01546,0.003132,0.012624,0.580246,0.669979,0.301499,0.351485,-0.018366,-0.074144
588,2165572908093931,1.190598,9.871872,-0.873505,8.589067,-2.299375,-4.535993,0.018112,0.001755,0.003967,0.012249,0.003602,0.013559,0.580194,0.670024,0.301524,0.351463,-0.018369,-0.074155
589,2165572913037779,1.179825,9.868286,-0.889069,8.578042,-2.314968,-4.541332,0.017044,-0.001434,0.005035,0.00918,0.005128,0.0144,0.580142,0.670074,0.301547,0.351434,-0.018373,-0.074166
590,2165572917981627,1.177429,9.887436,-0.844772,8.597479,-2.274496,-4.557582,0.017044,-0.003571,0.006104,0.007575,0.006497,0.015522,0.580104,0.670114,0.301561,0.351409,-0.018377,-0.074176
591,2165572922925474,1.18103,9.900009,-0.898636,8.603007,-2.330359,-4.557445,0.014923,-0.00676,0.006104,0.003775,0.00697,0.015583,0.580058,0.670167,0.301574,0.351372,-0.018381,-0.074187
592,2165572927869322,1.21814,9.896408,-0.872299,8.624194,-2.304857,-4.527078,0.015991,-0.00676,0.007156,0.004513,0.008009,0.016374,0.580011,0.670219,0.301573,0.35135,-0.018385,-0.074197
593,2165572932782652,1.210358,9.92334,-0.877686,8.640782,-2.314913,-4.548172,0.017044,-0.004639,0.005035,0.00658,0.005601,0.016208,0.579963,0.670269,0.301583,0.351325,-0.01839,-0.074207
594,2165572937726500,1.192398,9.934113,-0.879486,8.638891,-2.318893,-4.56882,0.014923,-0.004639,0.006104,0.005499,0.006667,0.01438,0.579922,0.670314,0.301594,0.351298,-0.018394,-0.074217
595,2165572942670347,1.218735,9.92395,-0.901031,8.642885,-2.339799,-4.539596,0.013855,-0.003571,0.007156,0.005884,0.007558,0.012814,0.579871,0.670366,0.3016,0.351279,-0.018399,-0.074228
596,2165572947614195,1.251053,9.932327,-0.904022,8.667559,-2.345269,-4.517381,0.014923,-0.002502,0.006104,0.007235,0.00636,0.013169,0.579813,0.670422,0.301601,0.351267,-0.018405,-0.074238
597,2165572952558043,1.246872,9.898209,-0.887863,8.639308,-2.325347,-4.502523,0.013855,0.000687,0.005035,0.009084,0.004841,0.010575,0.579759,0.670469,0.301607,0.351261,-0.01841,-0.074247
598,2165572957501890,1.252853,9.945496,-0.881882,8.681815,-2.32723,-4.524395,0.010666,0.004959,0.003967,0.0106,0.003171,0.005628,0.579711,0.670503,0.301616,0.351266,-0.018416,-0.074256
599,2165572962415221,1.243866,9.906586,-0.887863,8.644245,-2.328265,-4.509106,0.009598,0.00708,0.002899,0.011582,0.001808,0.003638,0.57967,0.670541,0.301619,0.351259,-0.018421,-0.074264
600,2165572967359068,1.218735,9.88205,-0.849564,8.61476,-2.287277,-4.518443,0.00853,0.009216,0.003967,0.012835,0.002555,0.001468,0.579635,0.670559,0.301636,0.351269,-0.018426,-0.074272
601,2165572972424986,1.206757,9.86409,-0.849564,8.59352,-2.285023,-4.517541,0.007462,0.010284,0.002899,0.012963,0.001345,7.4e-05,0.579602,0.670572,0.301658,0.351278,-0.018431,-0.074279
602,2165572977399351,1.21814,9.870667,-0.85434,8.605029,-2.291097,-4.510882,0.005341,0.012405,0.000763,0.013214,-0.001072,-0.002691,0.579571,0.670581,0.301683,0.351291,-0.018436,-0.074286
603,2165572982434752,1.224716,9.870667,-0.841171,8.610327,-2.278465,-4.506498,0.003204,0.010284,0.001831,0.010401,0.000299,-0.003333,0.579556,0.670595,0.30168,0.351293,-0.01844,-0.07429
604,2165572987409117,1.203171,9.874863,-0.816635,8.60441,-2.254759,-4.528546,0.001068,0.008148,0.000763,0.007317,-0.000439,-0.003792,0.579555,0.670596,0.301681,0.351292,-0.01844,-0.07429
605,2165572992352965,1.227112,9.872467,-0.832199,8.614202,-2.270021,-4.50624,0.0,0.008148,-0.00029,0.006579,-0.001478,-0.004583,0.579548,0.670601,0.301678,0.351294,-0.018442,-0.074292
606,2165572997296812,1.187607,9.885635,-0.853149,8.599833,-2.292513,-4.54439,-0.001053,0.006012,-0.00029,0.004244,-0.001163,-0.00424,0.579545,0.670606,0.301689,0.351283,-0.018443,-0.074294
607,2165573002210142,1.195984,9.886841,-0.819626,8.609691,-2.259374,-4.540941,-0.002121,0.003891,-0.00029,0.001912,-0.00085,-0.003917,0.57955,0.670601,0.301692,0.35128,-0.018445,-0.074296
608,2165573007123472,1.203766,9.864685,-0.846558,8.592905,-2.282707,-4.519844,-0.005325,0.003891,-0.001358,-4.8e-05,-0.001899,-0.00646,0.579552,0.6706,0.301696,0.351276,-0.018446,-0.074297
609,2165573012036803,1.196594,9.868286,-0.865128,8.58952,-2.301396,-4.526267,-0.008514,0.004959,-0.002426,-0.001132,-0.003103,-0.009594,0.579556,0.670597,0.301703,0.351269,-0.018447,-0.074298
610,2165573016950133,1.21814,9.870667,-0.856735,8.604879,-2.293358,-4.510485,-0.012772,0.004959,-0.001358,-0.003434,-0.002036,-0.013177,0.579562,0.670585,0.301705,0.35128,-0.018448,-0.074299
611,2165573021832945,1.210358,9.855713,-0.891449,8.584167,-2.325406,-4.505449,-0.014908,0.004959,-0.001358,-0.004654,-0.00203,-0.01493,0.579562,0.670579,0.301711,0.351285,-0.018449,-0.0743
612,2165573026746275,1.197189,9.848526,-0.93515,8.565674,-2.367384,-4.50842,-0.019165,0.00708,-0.003494,-0.005622,-0.004443,-0.01945,0.57956,0.670574,0.301728,0.351284,-0.01845,-0.0743
613,2165573031659605,1.19838,9.891617,-0.946518,8.600164,-2.384637,-4.530619,-0.021301,0.008148,-0.004562,-0.006103,-0.00565,-0.02172,0.57956,0.670565,0.301749,0.351282,-0.01845,-0.074301
614,2165573036572935,1.206161,9.886841,-0.928574,8.603248,-2.365754,-4.522636,-0.026627,0.012405,-0.006683,-0.005945,-0.008357,-0.028326,0.579571,0.670541,0.301771,0.351294,-0.018451,-0.074301
615,2165573041486265,1.209152,9.870071,-0.934555,8.59098,-2.36862,-4.50984,-0.03302,0.014542,-0.007751,-0.007987,-0.009708,-0.034696,0.579589,0.670507,0.301791,0.351312,-0.018451,-0.074302
616,2165573046399596,1.224121,9.859299,-0.919586,8.592931,-2.351751,-4.4923,-0.031952,0.014542,-0.007751,-0.007375,-0.009708,-0.033821,0.579606,0.670473,0.301806,0.351335,-0.018452,-0.074302
617,2165573051343443,1.218735,9.853912,-0.920181,8.585821,-2.350761,-4.493234,-0.036209,0.01561,-0.010956,-0.009324,-0.013021,-0.03766,0.579632,0.670429,0.301826,0.351358,-0.018452,-0.074302
618,2165573056287291,1.236084,9.819794,-0.919586,8.568486,-2.344666,-4.459309,-0.039413,0.017731,-0.00882,-0.009169,-0.011205,-0.041665,0.579656,0.670384,0.301837,0.351395,-0.018452,-0.074302
619,2165573061109068,1.229507,9.820999,-0.895645,8.56909,-2.320299,-4.466852,-0.042603,0.019867,-0.010956,-0.009509,-0.013615,-0.04532,0.579691,0.670326,0.301851,0.351436,-0.018452,-0.074302
620,2165573065961363,1.210358,9.803635,-0.892059,8.544995,-2.313256,-4.472589,-0.042603,0.019867,-0.009888,-0.009375,-0.012553,-0.045409,0.579728,0.670267,0.301868,0.351474,-0.018453,-0.074302
621,2165573070996763,1.227707,9.802444,-0.851959,8.559273,-2.272389,-4.460519,-0.045807,0.019867,-0.009888,-0.011199,-0.012536,-0.048044,0.579781,0.670192,0.301872,0.351526,-0.018453,-0.074302
622,2165573076001646,1.192398,9.80603,-0.868713,8.540584,-2.288115,-4.489728,-0.04686,0.020935,-0.009888,-0.010926,-0.01268,-0.049515,0.579834,0.670115,0.301889,0.35157,-0.018453,-0.074301
623,2165573080914976,1.169052,9.809616,-0.884872,8.528817,-2.30321,-4.509176,-0.048996,0.022003,-0.00882,-0.011142,-0.011764,-0.051961,0.579887,0.670039,0.301911,0.351608,-0.018452,-0.074296
624,2165573085858824,1.15947,9.824585,-0.880081,8.536728,-2.299203,-4.525383,-0.048996,0.023056,-0.007751,-0.010151,-0.010851,-0.052645,0.579941,0.66996,0.301936,0.351647,-0.01845,-0.07429
625,2165573090802672,1.151093,9.853317,-0.830399,8.561958,-2.252524,-4.552087,-0.051132,0.022003,-0.006683,-0.01209,-0.009623,-0.053894,0.580014,0.669866,0.301953,0.351693,-0.018449,-0.074284
626,2165573095746519,1.144516,9.845535,-0.794495,8.556847,-2.214097,-4.555669,-0.052185,0.020935,-0.004562,-0.013295,-0.007353,-0.054328,0.580097,0.669764,0.301961,0.351745,-0.018446,-0.074277
627,2165573100690367,1.143921,9.875458,-0.799881,8.580772,-2.221949,-4.572338,-0.056458,0.022003,-0.002426,-0.014599,-0.005364,-0.058614,0.580183,0.669657,0.301964,0.351802,-0.018444,-0.07427
628,2165573105634215,1.158279,9.851517,-0.790298,8.571164,-2.207466,-4.547598,-0.055389,0.018799,-0.001358,-0.016459,-0.003834,-0.056014,0.580267,0.669556,0.301957,0.351861,-0.018441,-0.074263
629,2165573110578062,1.154083,9.851517,-0.769348,8.571786,-2.185022,-4.552651,-0.056458,0.016663,-0.001358,-0.0188,-0.003506,-0.055689,0.580361,0.669451,0.301945,0.351919,-0.018438,-0.074255
630,2165573115491392,1.17804,9.903595,-0.762772,8.628961,-2.1846,-4.562847,-0.055389,0.01561,0.000763,-0.018786,-0.001245,-0.054385,0.58045,0.66935,0.301924,0.351982,-0.018434,-0.074247
631,2165573120435240,1.20137,9.921555,-0.723267,8.661902,-2.1467,-4.557042,-0.056458,0.012405,0.001831,-0.021868,0.000295,-0.053539,0.580549,0.669243,0.301884,0.352054,-0.01843,-0.074239
632,2165573125379088,1.204361,9.898209,-0.710693,8.646426,-2.129448,-4.542589,-0.05751,0.011337,0.001831,-0.023332,0.000472,-0.053802,0.580653,0.669135,0.30184,0.352128,-0.018426,-0.074229
633,2165573130322935,1.21933,9.933517,-0.689148,8.686462,-2.111705,-4.55218,-0.05751,0.009216,0.000763,-0.025183,-0.000261,-0.052523,0.580762,0.669023,0.301789,0.352202,-0.018421,-0.074219
634,2165573135266783,1.269608,9.98201,-0.687943,8.754818,-2.116487,-4.538632,-0.056458,0.008148,-0.00029,-0.025576,-0.001137,-0.050976,0.580865,0.668918,0.301728,0.352284,-0.018416,-0.074207
635,2165573140210631,1.291153,9.975418,-0.67717,8.763087,-2.10389,-4.518451,-0.055389,0.004959,-0.001358,-0.027687,-0.001725,-0.048217,0.580968,0.668817,0.301658,0.352366,-0.018411,-0.074194
636,2165573145123961,1.280975,10.008942,-0.664612,8.786017,-2.094897,-4.547389,-0.056458,-0.000381,-0.001358,-0.032636,-0.000937,-0.046081,0.581082,0.668715,0.301582,0.352437,-0.018406,-0.07418
637,2165573150067808,1.27739,10.04245,-0.628098,8.815533,-2.062034,-4.572875,-0.055389,-0.003571,-0.001358,-0.034621,-0.00047,-0.043402,0.581207,0.668607,0.3015,0.352505,-0.0184,-0.074166
