,time,acce_x,acce_y,acce_z,acce_glob_x,acce_glob_y,acce_glob_z,gyro_x,gyro_y,gyro_z,gyro_glob_x,gyro_glob_y,gyro_glob_z,ori_w,ori_x,ori_y,ori_z,pos_x,pos_y
0,341884432310809,-0.0466,9.828171,1.924728,-6.927981,3.226282,-6.472546,0.011749,-0.017517,0.001465,0.020661,0.000629,0.004447,0.71442,0.58818,-0.240758,-0.292718,-0.003319,-0.012345
1,341884437254656,-0.019073,9.842545,1.940887,-6.919039,3.24756,-6.497942,0.010696,-0.01857,0.002533,0.020649,0.001391,0.006111,0.714397,0.588181,-0.240796,-0.29274,-0.00333,-0.012549
2,341884442198504,0.006073,9.861099,1.940887,-6.914613,3.253254,-6.52785,0.010696,-0.015381,0.000397,0.018413,-0.000269,0.003469,0.714376,0.588185,-0.240833,-0.292754,-0.003338,-0.012754
3,341884447111834,0.03241,9.869476,1.940292,-6.90219,3.257357,-6.551469,0.007492,-0.016449,-0.000656,0.01688,-0.001881,0.006218,0.714361,0.58818,-0.240875,-0.292766,-0.003342,-0.01296
4,341884452086199,0.019836,9.877853,1.904968,-6.917478,3.221787,-6.555146,0.006424,-0.013245,-0.00386,0.013872,-0.004731,0.004097,0.714337,0.588189,-0.240908,-0.29278,-0.003346,-0.013168
5,341884457030047,-0.016678,9.897614,1.936096,-6.957906,3.249614,-6.537502,0.00856,-0.014313,-0.00386,0.016143,-0.004588,0.003372,0.714311,0.588198,-0.240929,-0.292806,-0.003349,-0.013377
6,341884461973894,-0.008896,9.892822,1.934296,-6.949655,3.247693,-6.539448,0.009628,-0.016449,-0.005981,0.018404,-0.006817,0.003722,0.714283,0.588207,-0.240955,-0.292837,-0.003353,-0.01359
7,341884466917742,-0.015472,9.867676,1.933105,-6.937355,3.241595,-6.517156,0.009628,-0.016449,-0.00705,0.018405,-0.007865,0.003516,0.714253,0.588217,-0.240977,-0.292871,-0.003357,-0.013793
8,341884471861590,-0.048401,9.880844,1.897186,-6.970646,3.202749,-6.510391,0.00856,-0.013245,-0.00705,0.015396,-0.007571,0.002011,0.714215,0.588242,-0.240987,-0.292905,-0.003362,-0.013998
9,341884476774920,-0.072342,9.885635,1.898987,-6.991533,3.200975,-6.496872,0.007492,-0.008987,-0.004929,0.011647,-0.005051,0.000177,0.714181,0.588269,-0.240984,-0.292936,-0.003368,-0.014202
10,341884481718768,-0.031631,9.861694,1.916336,-6.946197,3.21958,-6.504698,0.00856,-0.010056,-0.004929,0.013158,-0.005052,0.000188,0.714154,0.588286,-0.240995,-0.29296,-0.003375,-0.014407
11,341884486662615,-0.063965,9.868881,1.917542,-6.974744,3.216515,-6.487122,0.00856,-0.008987,-0.005981,0.012408,-0.005938,-0.000761,0.714123,0.588308,-0.240992,-0.292992,-0.003382,-0.014611
12,341884491606463,-0.078323,9.86528,1.942078,-6.982983,3.237336,-6.469863,0.010696,-0.010056,-0.004929,0.01468,-0.004762,-0.001284,0.714095,0.588326,-0.240987,-0.293029,-0.003389,-0.014814
13,341884496519793,-0.029846,9.852112,1.973206,-6.939632,3.272328,-6.487823,0.009628,-0.008987,-0.00386,0.013168,-0.003711,-0.001091,0.714082,0.588327,-0.240992,-0.293054,-0.003394,-0.015015
14,341884501433123,-0.039413,9.852112,1.933105,-6.946819,3.23103,-6.488831,0.012817,-0.008987,-0.002792,0.015438,-0.002232,-0.003085,0.714056,0.588346,-0.241002,-0.293074,-0.003398,-0.015217
15,341884506376971,-0.06636,9.841339,1.925919,-6.958832,3.218096,-6.464063,0.011749,-0.007919,-0.002792,0.013928,-0.00223,-0.003095,0.714027,0.588368,-0.241002,-0.293099,-0.0034,-0.015417
16,341884511320818,-0.02446,9.834167,1.902573,-6.924311,3.199256,-6.492309,0.012817,-0.010056,-0.000656,0.016187,-0.00028,-0.001929,0.713997,0.58839,-0.241025,-0.29311,-0.003399,-0.015619
17,341884516264666,-0.018463,9.831772,1.855286,-6.918665,3.152578,-6.503798,0.011749,-0.011124,0.000397,0.016176,0.000465,-0.000246,0.713957,0.588422,-0.241057,-0.293114,-0.003394,-0.01582
18,341884521208514,-0.051987,9.860504,1.859482,-6.963065,3.155264,-6.499997,0.00856,-0.008987,0.001465,0.012404,0.001373,0.000661,0.713921,0.588453,-0.241076,-0.293125,-0.003444,-0.016051
19,341884526152361,-0.019669,9.861694,1.884613,-6.940891,3.184179,-6.518463,0.004303,-0.005798,0.002533,0.007133,0.00228,0.001571,0.713908,0.58847,-0.241086,-0.293116,-0.003489,-0.016285
20,341884531065691,0.016846,9.890427,1.902573,-6.934981,3.210704,-6.560338,0.003235,-0.011124,0.002533,0.010113,0.001414,0.006029,0.713903,0.588476,-0.241106,-0.293098,-0.00353,-0.016526
21,341884536009539,0.050369,9.901794,1.89061,-6.918976,3.204954,-6.593819,0.006424,-0.007919,-0.000656,0.010135,-0.000853,0.000982,0.713891,0.588491,-0.241132,-0.293075,-0.003568,-0.016772
22,341884540953387,0.034195,9.908386,1.899582,-6.935068,3.212388,-6.585683,0.004303,-0.005798,-0.001724,0.007136,-0.001899,0.000757,0.713882,0.588503,-0.24115,-0.29306,-0.003608,-0.017023
23,341884545897234,0.008469,9.905396,1.900177,-6.95127,3.208883,-6.565863,0.003235,-0.005798,-0.002792,0.006376,-0.003091,0.001289,0.713871,0.588516,-0.241157,-0.293054,-0.00369,-0.017515
24,341884550810564,0.041382,9.900604,1.926514,-6.924401,3.238636,-6.580203,0.004303,-0.00473,-0.001724,0.006386,-0.001755,1.1e-05,0.71387,0.588518,-0.241172,-0.29304,-0.003736,-0.017763
25,341884555754412,0.047363,9.894012,1.942078,-6.915468,3.253879,-6.576785,0.007492,-0.006851,-0.00386,0.010147,-0.00371,-0.001113,0.713867,0.588522,-0.241187,-0.293028,-0.003783,-0.017997
26,341884560698260,0.010864,9.853912,1.931305,-6.913299,3.232749,-6.525753,0.007492,-0.003662,-0.004929,0.007908,-0.004327,-0.003546,0.713859,0.588532,-0.241188,-0.293027,-0.003834,-0.018235
27,341884565672625,-0.0448,9.853912,1.937897,-6.953013,3.231265,-6.486258,0.00856,-0.003662,-0.00386,0.008668,-0.003134,-0.004077,0.713846,0.588547,-0.241174,-0.293038,-0.003886,-0.018464
28,341884570585955,-0.041809,9.856308,1.927719,-6.952658,3.221503,-6.492087,0.007492,-0.003662,-0.00386,0.007908,-0.003277,-0.003341,0.713832,0.588564,-0.241163,-0.293048,-0.003936,-0.018689
29,341884575529803,-0.057373,9.850327,1.849304,-6.959591,3.140672,-6.492496,0.006424,-0.001526,-0.00386,0.005648,-0.003132,-0.004098,0.7138,0.588603,-0.241154,-0.293055,-0.003985,-0.018918
30,341884580473650,-0.095078,9.857498,1.885223,-6.991655,3.17093,-6.464933,0.005371,-0.001526,-0.002792,0.004898,-0.002225,-0.003168,0.713775,0.588633,-0.241131,-0.293074,-0.004033,-0.019168
31,341884585417498,-0.061569,9.867676,1.900177,-6.975052,3.191003,-6.492436,0.002167,-0.005798,-0.001724,0.005616,-0.002185,0.00223,0.713762,0.588649,-0.241118,-0.293085,-0.004075,-0.019423
32,341884590361346,-0.008301,9.856903,1.861282,-6.929534,3.158121,-6.529233,0.002167,-0.005798,-0.002792,0.005617,-0.003233,0.002027,0.713745,0.58867,-0.241123,-0.29308,-0.004113,-0.019671
33,341884595274676,-0.013687,9.826981,1.87085,-6.912382,3.162399,-6.502915,0.002167,-0.005798,-0.002792,0.005617,-0.003233,0.002027,0.713731,0.588686,-0.241124,-0.293079,-0.004158,-0.019932
34,341884600218523,-0.0448,9.870071,1.87085,-6.964881,3.163495,-6.511771,3.1e-05,-0.006851,-0.00386,0.004837,-0.00471,0.004032,0.713715,0.588706,-0.241115,-0.293087,-0.004207,-0.020197
35,341884605162371,-0.020264,9.898209,1.918732,-6.967267,3.217435,-6.53926,-0.001022,-0.006851,-0.004929,0.004088,-0.005901,0.004554,0.713713,0.588709,-0.241105,-0.293095,-0.004251,-0.020453
36,341884610075701,-0.041214,9.879654,1.919342,-6.969217,3.212377,-6.511816,0.003235,-0.007919,-0.00386,0.007868,-0.004423,0.00257,0.713704,0.588719,-0.241094,-0.293104,-0.004329,-0.020731
37,341884615050066,-0.011292,9.880249,1.897186,-6.948321,3.194454,-6.537197,0.004303,-0.011124,-0.002792,0.010878,-0.003664,0.004278,0.713692,0.588733,-0.241098,-0.293101,-0.004407,-0.021008
38,341884619993914,-0.00351,9.883835,1.934906,-6.945729,3.232857,-6.537543,0.005371,-0.011124,-0.002792,0.011639,-0.00352,0.003541,0.71368,0.588731,-0.241117,-0.293119,-0.004486,-0.021289
39,341884624907244,-0.010086,9.875458,1.925919,-6.944535,3.221887,-6.528932,0.004303,-0.007919,-0.002792,0.008627,-0.003231,0.002037,0.713676,0.588737,-0.241117,-0.293119,-0.004565,-0.021575
40,341884629851092,-0.0065,9.894012,1.916336,-6.954983,3.215289,-6.546288,0.006424,-0.006851,-0.000656,0.009385,-0.000705,0.000236,0.713666,0.588748,-0.241124,-0.293113,-0.004642,-0.021863
41,341884634794939,-0.025055,9.874268,1.910355,-6.954336,3.203894,-6.521011,0.00856,-0.005798,-0.000656,0.010166,-0.000275,-0.001973,0.713652,0.588766,-0.241127,-0.29311,-0.004717,-0.02215
42,341884639738787,-0.038223,9.877853,1.95285,-6.966319,3.244037,-6.506425,0.00856,-0.002594,-0.001724,0.007917,-0.000892,-0.004416,0.713644,0.588775,-0.241118,-0.293117,-0.004792,-0.022431
43,341884644682635,-0.041214,9.841339,1.908569,-6.942807,3.194815,-6.487429,0.00856,-0.000473,0.000397,0.006426,0.001477,-0.005494,0.713629,0.588793,-0.241116,-0.293119,-0.00487,-0.022706
44,341884649626482,-0.040619,9.863495,1.895401,-6.957976,3.184466,-6.506044,0.007492,0.002731,0.001465,0.003414,0.002813,-0.006795,0.713612,0.588815,-0.241116,-0.293119,-0.004951,-0.022975
45,341884654539812,-0.040619,9.858109,1.881027,-6.954191,3.169159,-6.505207,0.006424,0.00592,0.002533,0.000413,0.004147,-0.008084,0.713593,0.588837,-0.241117,-0.293117,-0.005034,-0.023231
46,341884659483660,-0.069946,9.812012,1.843918,-6.942719,3.121919,-6.460078,0.003235,0.00592,0.003601,-0.001859,0.004767,-0.005683,0.71357,0.588865,-0.241113,-0.29312,-0.005125,-0.023497
47,341884664427508,-0.029251,9.813217,1.828354,-6.914592,3.111732,-6.492192,0.003235,0.00592,0.002533,-0.001857,0.003718,-0.005887,0.713548,0.588893,-0.241121,-0.293113,-0.005219,-0.023752
48,341884669371355,0.007263,9.827576,1.876236,-6.898706,3.165481,-6.518364,0.001099,0.004868,0.000397,-0.002637,0.001192,-0.004085,0.713541,0.588901,-0.241129,-0.293106,-0.005317,-0.024007
49,341884674315203,-0.017868,9.84433,1.855286,-6.928378,3.143347,-6.516918,0.001099,0.004868,-0.001724,-0.002634,-0.00089,-0.004488,0.713525,0.588921,-0.241129,-0.293106,-0.005417,-0.024259
50,341884679259051,-0.022064,9.879654,1.824173,-6.956136,3.116436,-6.544904,0.001099,0.001663,0.000397,-0.000386,0.000761,-0.001845,0.713502,0.58895,-0.241137,-0.293098,-0.00552,-0.024511
51,341884684172381,-0.029251,9.870667,1.828949,-6.955005,3.118377,-6.532955,-0.00209,0.003799,-0.002792,-0.004153,-0.002511,-0.001745,0.713481,0.588974,-0.241134,-0.293101,-0.005637,-0.024791
52,341884689116228,-0.068741,9.831772,1.859482,-6.955982,3.137142,-6.47293,-0.001022,0.006989,-0.00386,-0.005631,-0.002988,-0.004915,0.713464,0.588995,-0.241113,-0.293119,-0.005757,-0.02507
53,341884694060076,-0.063354,9.864685,1.863678,-6.975323,3.145971,-6.498988,-0.00209,-0.000473,0.000397,-0.001156,4.6e-05,0.001847,0.713451,0.58901,-0.241102,-0.293127,-0.005877,-0.025347
54,341884699003924,-0.0065,9.855713,1.925323,-6.928635,3.213125,-6.520116,-0.00209,0.001663,0.000397,-0.002656,0.000333,0.000353,0.71346,0.589,-0.241101,-0.293129,-0.005999,-0.025621
55,341884703917254,-0.04541,9.882645,1.921738,-6.975302,3.207818,-6.51282,3.1e-05,0.004868,-0.000656,-0.003396,1.4e-05,-0.003549,0.713458,0.589002,-0.241087,-0.29314,-0.006086,-0.025882
56,341884708861102,-0.017868,9.913773,1.918732,-6.97757,3.212689,-6.554147,0.001099,0.000595,0.000397,0.000364,0.000617,-0.001098,0.713456,0.589004,-0.241087,-0.293141,-0.006173,-0.026144
57,341884713804949,-0.032242,9.922745,1.900787,-6.994092,3.194097,-6.554023,0.002167,0.004868,0.001465,-0.001878,0.002383,-0.004619,0.713447,0.589015,-0.241086,-0.293141,-0.00626,-0.026409
58,341884718748797,-0.0448,9.974823,1.940887,-7.039707,3.2386,-6.574204,0.003235,0.003799,0.002533,-0.000368,0.003431,-0.004405,0.713443,0.58902,-0.241081,-0.293146,-0.006346,-0.026673
59,341884723692644,-0.011887,9.986191,1.97081,-7.02427,3.273973,-6.599161,0.007492,0.002731,0.002533,0.003412,0.00386,-0.006593,0.713443,0.58902,-0.241085,-0.293142,-0.006431,-0.02694
60,341884728636492,0.024628,9.9431,1.970215,-6.967943,3.272617,-6.594344,0.010696,0.004868,0.000397,0.004195,0.002479,-0.010701,0.713443,0.589021,-0.241097,-0.293131,-0.006517,-0.027207
61,341884733580340,0.013855,9.897614,1.875046,-6.943203,3.17113,-6.573784,0.011749,0.010193,-0.001724,0.001209,0.001252,-0.015553,0.713424,0.589058,-0.241098,-0.293102,-0.006603,-0.027475
62,341884738493670,0.015045,9.858109,1.928909,-6.914514,3.218749,-6.537015,0.012817,0.003799,0.000397,0.006457,0.002619,-0.011416,0.713417,0.589073,-0.241106,-0.293084,-0.006686,-0.027736
63,341884743437518,0.065323,9.861694,1.963028,-6.880886,3.259909,-6.567875,0.011749,0.006989,0.001465,0.003455,0.003952,-0.012707,0.713426,0.589071,-0.241121,-0.29305,-0.006772,-0.028007
64,341884748381365,-0.028641,9.880844,1.960037,-6.961006,3.246815,-6.517388,0.011749,0.006989,0.002533,0.003454,0.005,-0.012505,0.713426,0.589083,-0.24111,-0.293038,-0.006858,-0.028278
65,341884753325213,0.009064,9.88205,1.867264,-6.934632,3.160565,-6.562265,0.012817,0.004868,0.003601,0.005703,0.005906,-0.011556,0.713405,0.589116,-0.241127,-0.293007,-0.006944,-0.02855
66,341884758269061,0.056351,9.874268,1.882828,-6.895199,3.181109,-6.586805,0.011749,0.004868,0.002533,0.004945,0.004713,-0.011022,0.713394,0.589137,-0.241153,-0.292969,-0.007032,-0.028826
67,341884763182391,0.05336,9.879059,1.929504,-6.900426,3.227401,-6.579487,0.011749,0.004868,0.003601,0.004944,0.005761,-0.01082,0.713395,0.589145,-0.241174,-0.292935,-0.007225,-0.029408
68,341884768126238,0.044373,9.891022,1.898987,-6.915102,3.197717,-6.587592,0.010696,0.001663,-0.000656,0.006449,0.001009,-0.00866,0.713382,0.589161,-0.241197,-0.292915,-0.007325,-0.029699
69,341884773039568,0.018646,9.891617,1.885223,-6.933808,3.180333,-6.573153,0.011749,0.001663,-0.004929,0.007203,-0.003046,-0.010195,0.71336,0.589189,-0.241207,-0.292905,-0.007428,-0.029988
70,341884777983416,0.037201,9.897614,1.857086,-6.924716,3.155571,-6.59572,0.009628,-0.001526,-0.00386,0.007931,-0.002709,-0.0063,0.713337,0.589217,-0.241227,-0.292887,-0.007534,-0.030273
71,341884782927264,0.028809,9.891617,1.883423,-6.926462,3.17917,-6.580979,0.010696,-0.000473,-0.002792,0.007951,-0.001377,-0.00757,0.713319,0.58924,-0.241244,-0.292872,-0.007641,-0.030554
72,341884787871111,0.021027,9.872467,1.895401,-6.918581,3.186916,-6.560137,0.011749,0.000595,-0.004929,0.007953,-0.003192,-0.009447,0.7133,0.589262,-0.241254,-0.292865,-0.007751,-0.030829
73,341884792814959,0.009659,9.868286,1.863068,-6.923701,3.152465,-6.555791,0.010696,-0.001526,-0.005981,0.008693,-0.00465,-0.007437,0.713274,0.589294,-0.241261,-0.292857,-0.00786,-0.0311
74,341884797728289,-0.020859,9.874268,1.893005,-6.949724,3.177906,-6.533554,0.011749,0.001663,-0.005981,0.007204,-0.004083,-0.010392,0.713251,0.589323,-0.241256,-0.29286,-0.00797,-0.031369
75,341884802672137,-0.011292,9.897003,1.879227,-6.958899,3.168068,-6.558912,0.010696,-0.000473,-0.004929,0.007953,-0.003477,-0.007974,0.713227,0.589352,-0.241258,-0.292858,-0.008027,-0.031668
76,341884807615984,-0.0065,9.869476,1.913956,-6.936241,3.198765,-6.536524,0.00856,-0.000473,-0.005981,0.006434,-0.004795,-0.0067,0.713215,0.589366,-0.241253,-0.292862,-0.008083,-0.031967
77,341884812559832,-0.013077,9.856903,1.918137,-6.932182,3.199859,-6.522551,0.009628,0.001663,-0.00705,0.005696,-0.005417,-0.009131,0.713202,0.589382,-0.241244,-0.29287,-0.008141,-0.032265
78,341884817503680,0.016251,9.847931,1.918732,-6.904973,3.202855,-6.536565,0.010696,0.002731,-0.00705,0.005707,-0.005132,-0.010614,0.713192,0.589397,-0.241242,-0.292867,-0.008199,-0.032564
79,341884822417010,0.022232,9.838943,1.925323,-6.89434,3.20876,-6.53331,0.012817,0.002731,-0.00386,0.007213,-0.001717,-0.011474,0.713184,0.589409,-0.241247,-0.292858,-0.008259,-0.03286
80,341884827391375,-0.011292,9.853912,1.93251,-6.928691,3.2129,-6.519579,0.014954,0.003799,-0.004929,0.007987,-0.002339,-0.013896,0.71317,0.58943,-0.24124,-0.292856,-0.00832,-0.033159
81,341884832335223,-0.048996,9.88324,1.948074,-6.975974,3.226482,-6.511633,0.016022,0.009125,-0.00386,0.005008,-0.000436,-0.018155,0.713157,0.589457,-0.241213,-0.292854,-0.008383,-0.033458
82,341884837279070,-0.034637,9.897003,1.947464,-6.975303,3.229093,-6.531669,0.016022,0.006989,-0.00386,0.006508,-0.000721,-0.016661,0.713144,0.589482,-0.241195,-0.292852,-0.008448,-0.033758
83,341884842222918,-0.049591,9.891022,1.95285,-6.981669,3.230943,-6.516571,0.019211,0.00592,-0.002792,0.009529,0.000609,-0.017909,0.713126,0.589511,-0.241177,-0.292851,-0.008518,-0.034065
84,341884847136248,-0.088501,9.855118,1.945068,-6.984099,3.212506,-6.466578,0.020279,0.006989,-0.000656,0.009537,0.002992,-0.01899,0.713105,0.589545,-0.241151,-0.292855,-0.008589,-0.034372
85,341884852080096,-0.056778,9.850922,1.923523,-6.95839,3.194451,-6.490002,0.019211,0.004868,0.003601,0.010259,0.006746,-0.015968,0.713086,0.589576,-0.241145,-0.292844,-0.008659,-0.034677
86,341884857023943,-0.027451,9.880249,1.93071,-6.957812,3.209047,-6.529826,0.018143,0.006989,0.005737,0.008008,0.008983,-0.016313,0.713075,0.589601,-0.241146,-0.29282,-0.008728,-0.03498
87,341884861967791,-0.037628,9.893417,1.957047,-6.974078,3.235137,-6.527428,0.017075,0.006989,0.005737,0.007248,0.00884,-0.015577,0.71307,0.589618,-0.241141,-0.292802,-0.008798,-0.035284
88,341884866911639,0.006668,9.947281,1.905563,-6.979939,3.197513,-6.60575,0.016022,0.004868,0.007858,0.007984,0.010499,-0.012968,0.713057,0.589643,-0.241161,-0.292766,-0.008869,-0.035587
89,341884871824969,-0.031036,9.898209,1.858292,-6.971967,3.138994,-6.554935,0.012817,0.008057,0.005737,0.003467,0.008413,-0.013391,0.713036,0.589682,-0.241164,-0.292737,-0.008941,-0.035888
90,341884876768816,-0.063354,9.914963,1.887619,-7.00649,3.165204,-6.539445,0.011749,0.009125,0.005737,0.001957,0.008412,-0.013403,0.713021,0.589715,-0.241152,-0.292718,-0.009013,-0.036186
91,341884881712664,-0.0065,9.940109,1.930115,-6.9833,3.217904,-6.588616,0.009628,0.009125,0.005737,0.000447,0.008129,-0.011941,0.713023,0.589727,-0.24115,-0.29269,-0.009086,-0.03648
92,341884886656512,-0.00351,9.956268,1.907364,-6.991955,3.198062,-6.606839,0.009628,0.012314,0.005737,-0.00179,0.008553,-0.014173,0.713022,0.589748,-0.241146,-0.292653,-0.009158,-0.036771
93,341884891600359,-0.011887,9.967636,1.901382,-7.005341,3.192264,-6.610877,0.011749,0.015518,0.002533,-0.002522,0.006114,-0.01848,0.713014,0.58978,-0.241132,-0.292618,-0.009232,-0.037065
94,341884896544207,9.2e-05,9.931732,2.010315,-6.971272,3.296215,-6.573961,0.016022,0.01445,0.000397,0.001276,0.004442,-0.021079,0.713027,0.589785,-0.24111,-0.292595,-0.009305,-0.037354
95,341884901488055,0.007874,9.920349,2.016296,-6.957373,3.301554,-6.570649,0.023468,0.011246,-0.001724,0.008834,0.002921,-0.024364,0.713029,0.589798,-0.241097,-0.292574,-0.009381,-0.037645
96,341884906401385,-0.008301,9.879654,1.985779,-6.940005,3.263483,-6.537347,0.029861,0.011246,-0.002792,0.013392,0.002719,-0.028969,0.713013,0.589832,-0.241086,-0.292554,-0.009422,-0.037882
97,341884911345232,-0.067551,9.879059,1.982788,-6.981448,3.251596,-6.497565,0.034119,0.015518,-0.002792,0.013432,0.00385,-0.034892,0.712988,0.589884,-0.241052,-0.292539,-0.009466,-0.03812
98,341884916289080,-0.071136,9.871277,1.995346,-6.978128,3.261259,-6.48834,0.038391,0.019775,-0.004929,0.013497,0.002881,-0.041216,0.71296,0.589944,-0.241009,-0.292522,-0.009511,-0.038357
99,341884921232928,-0.074738,9.870667,1.962433,-6.979789,3.227057,-6.492715,0.039459,0.018707,-0.00386,0.015009,0.003927,-0.041002,0.712923,0.590013,-0.240973,-0.292501,-0.009557,-0.038594
100,341884926146258,-0.101074,9.838943,1.934906,-6.975771,3.190745,-6.458837,0.039459,0.021912,-0.00386,0.012766,0.004347,-0.043246,0.712881,0.590094,-0.240926,-0.292479,-0.009606,-0.038832
101,341884931090105,-0.172302,9.798843,1.883423,-6.997764,3.123154,-6.393084,0.043716,0.027237,-0.001724,0.012069,0.007706,-0.049506,0.71282,0.590206,-0.24086,-0.292457,-0.009657,-0.039073
102,341884936033953,-0.207016,9.758148,1.818176,-6.993158,3.046606,-6.354843,0.040512,0.030426,0.002533,0.007547,0.011875,-0.048738,0.712752,0.590332,-0.240789,-0.292427,-0.009709,-0.039313
103,341884940977801,-0.279434,9.713257,1.818787,-7.012561,3.029229,-6.275439,0.033066,0.034683,0.005737,-0.000746,0.014588,-0.045998,0.712695,0.590451,-0.240688,-0.292408,-0.009763,-0.039551
104,341884945921648,-0.251312,9.720444,1.840927,-6.996704,3.053865,-6.297561,0.02774,0.034683,0.012115,-0.004553,0.020141,-0.041144,0.712659,0.590547,-0.240599,-0.292376,-0.009814,-0.039779
105,341884950834978,-0.195648,9.72702,1.816986,-6.960506,3.037267,-6.346732,0.021347,0.035751,0.014252,-0.00986,0.021528,-0.037098,0.712634,0.590631,-0.240526,-0.292327,-0.009867,-0.040007
106,341884955778826,-0.194443,9.751556,1.780472,-6.975486,3.003441,-6.37358,0.016022,0.041077,0.014252,-0.017384,0.021516,-0.037175,0.712611,0.590721,-0.240444,-0.292267,-0.009923,-0.04024
107,341884960722674,-0.186066,9.756943,1.7715,-6.971892,2.995409,-6.386782,0.009628,0.043213,0.017441,-0.023445,0.024078,-0.033688,0.7126,0.590801,-0.240363,-0.2922,-0.009977,-0.040467
108,341884965666521,-0.142365,9.793457,1.741562,-6.96454,2.975865,-6.450164,0.002167,0.048538,0.018509,-0.032494,0.024834,-0.032104,0.7126,0.590877,-0.240285,-0.292112,-0.010031,-0.040687
109,341884970610369,-0.081314,9.831772,1.794235,-6.94596,3.040892,-6.511242,-0.006348,0.054932,0.018509,-0.04304,0.024546,-0.030748,0.712633,0.590921,-0.240203,-0.292009,-0.010085,-0.040903
110,341884975523699,0.105423,9.849121,1.919342,-6.823223,3.192661,-6.629544,-0.006348,0.042145,0.019577,-0.034082,0.023928,-0.021578,0.712707,0.590898,-0.240186,-0.29189,-0.010139,-0.041116
111,341884980467547,-0.013687,9.877853,1.877441,-6.926769,3.140106,-6.576958,-0.00209,0.040009,0.012115,-0.029521,0.016881,-0.024401,0.712744,0.590913,-0.240135,-0.291808,-0.010194,-0.041327
112,341884985411394,-0.135193,9.870071,1.762512,-7.005986,3.009481,-6.511712,-0.005295,0.057053,0.012115,-0.043728,0.018693,-0.034181,0.712758,0.590983,-0.240029,-0.291723,-0.01025,-0.041536
113,341884990355242,-0.086105,9.910172,1.765503,-6.997092,3.024003,-6.575112,-0.007416,0.052795,0.01532,-0.042265,0.021002,-0.029149,0.712778,0.591039,-0.239948,-0.291626,-0.010307,-0.041744
114,341884995299090,0.09346,9.86528,1.854095,-6.835667,3.13029,-6.651698,-0.009552,0.045334,0.01532,-0.038565,0.019748,-0.022447,0.712838,0.591036,-0.239921,-0.291507,-0.010364,-0.04195
115,341885000242937,0.115005,9.865891,1.956451,-6.818997,3.235776,-6.648882,-0.01062,0.046402,0.012115,-0.04006,0.016608,-0.023067,0.712924,0.591002,-0.23988,-0.291398,-0.010421,-0.042155
116,341885005186785,0.061142,9.896408,1.923523,-6.876974,3.201705,-6.6407,-0.008484,0.045334,0.011063,-0.037776,0.015723,-0.023985,0.712991,0.59099,-0.23983,-0.291301,-0.010441,-0.042308
117,341885010100115,0.065918,9.814407,1.902573,-6.814638,3.172138,-6.59127,-0.006348,0.040009,0.007858,-0.032514,0.012159,-0.022311,0.713048,0.59098,-0.239788,-0.291215,-0.010461,-0.042459
118,341885015043963,0.115005,9.798843,1.863068,-6.766893,3.138962,-6.622505,-0.005295,0.040009,0.007858,-0.031755,0.012303,-0.023038,0.7131,0.590978,-0.239765,-0.291111,-0.010479,-0.042608
119,341885019987811,0.13176,9.784485,1.805618,-6.743172,3.083865,-6.63574,-0.008484,0.037888,0.005737,-0.032546,0.009524,-0.01976,0.713142,0.590984,-0.239751,-0.291007,-0.010497,-0.042755
120,341885024901141,0.122192,9.805435,1.824173,-6.763261,3.104571,-6.641476,-0.009552,0.035751,0.002533,-0.031807,0.005958,-0.018127,0.713185,0.590986,-0.239731,-0.290917,-0.010513,-0.042902
121,341885029844988,0.135956,9.852722,1.920532,-6.785211,3.208753,-6.66693,-0.009552,0.034683,0.000397,-0.031054,0.003724,-0.017778,0.713247,0.590961,-0.239703,-0.290838,-0.010526,-0.043048
122,341885034788836,0.144333,9.908386,1.948669,-6.816837,3.246414,-6.707126,-0.008484,0.030426,-0.000656,-0.027313,0.002272,-0.015715,0.713309,0.590929,-0.239682,-0.290765,-0.010538,-0.043193
123,341885039763201,0.117996,9.934113,1.939682,-6.852618,3.238793,-6.709303,-0.008484,0.025101,-0.001724,-0.023593,0.00052,-0.01217,0.713362,0.590902,-0.239663,-0.290708,-0.010548,-0.043337
124,341885044646014,0.098251,9.912567,1.942078,-6.850946,3.236609,-6.680504,-0.003159,0.019775,-0.00386,-0.016058,-0.001582,-0.012473,0.7134,0.590883,-0.239648,-0.290665,-0.010557,-0.04348
125,341885049559344,0.061737,9.943695,1.93251,-6.898173,3.227073,-6.679562,0.001099,0.016571,-0.002792,-0.010773,-0.000398,-0.012938,0.713424,0.590877,-0.239633,-0.29063,-0.010566,-0.043618
126,341885054594744,0.103043,9.968231,1.954651,-6.8852,3.258259,-6.721207,0.003235,0.012314,-0.00386,-0.00627,-0.00173,-0.011605,0.71345,0.590863,-0.239636,-0.290593,-0.010574,-0.04375
127,341885059386004,0.123978,9.898804,1.961227,-6.821574,3.259168,-6.685202,0.004303,0.008057,-0.002792,-0.002537,-0.001106,-0.009142,0.713474,0.590834,-0.239663,-0.29057,-0.010583,-0.043886
128,341885064390887,0.087479,9.916763,1.937286,-6.860082,3.23385,-6.677162,0.004303,0.003799,-0.001724,0.000433,-0.000623,-0.005945,0.713489,0.590817,-0.239686,-0.290551,-0.010592,-0.044015
129,341885069334734,0.129974,9.90419,1.928314,-6.820625,3.229712,-6.698971,0.006424,0.001663,-0.001724,0.003443,-0.000629,-0.005896,0.713503,0.5908,-0.239724,-0.290518,-0.010602,-0.044141
130,341885074278582,0.117996,9.894012,1.934296,-6.821889,3.233371,-6.682361,0.00856,-0.001526,-0.000656,0.007197,0.000276,-0.004916,0.713516,0.590785,-0.239761,-0.290486,-0.010613,-0.044262
131,341885079222430,0.107819,9.934113,1.8918,-6.856912,3.196004,-6.711586,0.009628,-0.005798,-0.000656,0.010943,-0.000154,-0.002641,0.713515,0.590787,-0.239803,-0.29045,-0.010626,-0.044382
132,341885084166277,0.092865,9.901199,1.895401,-6.844496,3.193489,-6.677531,0.009628,-0.00473,-0.001724,0.010198,-0.001062,-0.003593,0.713514,0.590789,-0.239837,-0.290421,-0.010641,-0.044499
133,341885089110125,0.103043,9.88504,1.898392,-6.825738,3.195992,-6.672597,0.010696,-0.00473,-0.000656,0.010962,0.000126,-0.004125,0.713515,0.590789,-0.239875,-0.290388,-0.010656,-0.044616
134,341885094053973,0.061737,9.892822,1.860672,-6.8606,3.154493,-6.656962,0.009628,-0.00473,-0.001724,0.010198,-0.001064,-0.003593,0.713502,0.590805,-0.239903,-0.290363,-0.010672,-0.04473
135,341885098997820,-0.241135,9.872467,1.624847,-7.063467,2.877499,-6.480077,0.00856,0.000595,-0.000656,0.005717,0.000555,-0.006409,0.713406,0.590922,-0.239868,-0.290391,-0.010694,-0.044836
136,341885103911150,-0.219589,9.788071,1.392014,-6.987331,2.637304,-6.481831,-0.013809,0.054932,0.004669,-0.048221,0.010068,-0.028344,0.713329,0.591095,-0.239761,-0.290316,-0.010716,-0.044941
137,341885108854998,0.210175,9.867081,2.232376,-6.735107,3.533664,-6.673714,-0.019135,-0.003662,0.00679,-0.011161,0.00368,0.016957,0.713468,0.590923,-0.239787,-0.290302,-0.010736,-0.045044
138,341885113798846,0.27063,9.885635,1.809204,-6.704402,3.129851,-6.806416,-0.006348,-0.017517,0.005737,0.00767,0.002473,0.017751,0.713483,0.590883,-0.239911,-0.290245,-0.010753,-0.045145
139,341885118742693,0.027618,9.826981,2.009125,-6.837326,3.287853,-6.561087,-0.011688,0.012314,-0.004929,-0.016961,-0.004729,-0.001579,0.713541,0.590829,-0.239867,-0.290248,-0.010769,-0.045243
140,341885123656023,-0.028046,9.811417,1.808609,-6.866265,3.081119,-6.549575,-0.00209,-0.006851,-0.002792,0.003284,-0.00393,0.005733,0.713528,0.590845,-0.239864,-0.290251,-0.010784,-0.045341
141,341885128599871,0.088074,9.855118,1.777481,-6.813431,3.071644,-6.665784,-0.007416,0.009125,-0.002792,-0.011677,-0.002496,-0.001862,0.713522,0.590852,-0.23989,-0.290229,-0.010797,-0.045436
142,341885133543719,0.109024,9.868286,1.992966,-6.807562,3.289302,-6.648641,-0.007416,-0.00473,-0.002792,-0.002012,-0.004344,0.00789,0.713572,0.590792,-0.239901,-0.290219,-0.010808,-0.045526
143,341885138457049,0.17366,9.88504,1.93071,-6.773243,3.24,-6.715444,-0.001022,-0.017517,-0.00386,0.011491,-0.006266,0.012308,0.71359,0.590744,-0.239972,-0.290212,-0.010819,-0.045616
144,341885143370379,0.085083,9.863495,1.909164,-6.821979,3.204749,-6.643098,0.001099,-0.010056,-0.008118,0.007807,-0.009175,0.004807,0.713594,0.590723,-0.240001,-0.290222,-0.01083,-0.045708
145,341885148314227,-0.010696,9.883835,1.856491,-6.905458,3.142589,-6.601182,0.004303,-0.016449,-0.009186,0.014564,-0.010659,0.006909,0.713565,0.590732,-0.240021,-0.290259,-0.010841,-0.045792
146,341885153258074,0.010864,9.856903,1.811005,-6.871948,3.096581,-6.605003,0.001099,-0.020706,-0.00705,0.01524,-0.009547,0.0125,0.713533,0.590741,-0.240059,-0.29029,-0.01085,-0.045871
147,341885158201922,0.000687,9.858704,1.842728,-6.88135,3.126242,-6.592668,0.001099,-0.022842,-0.00705,0.016733,-0.009831,0.014001,0.713505,0.590739,-0.240095,-0.290331,-0.010858,-0.045947
148,341885163145769,-0.035233,9.877258,1.848114,-6.920981,3.128706,-6.57938,3.1e-05,-0.023895,-0.008118,0.016706,-0.011159,0.015273,0.713475,0.590739,-0.24012,-0.290385,-0.010865,-0.046019
149,341885168089617,-0.041214,9.879059,1.835541,-6.927501,3.115168,-6.578155,3.1e-05,-0.026031,-0.005981,0.018199,-0.009343,0.017173,0.713441,0.590741,-0.240151,-0.290438,-0.01087,-0.046089
150,341885173033465,-0.053192,9.889832,1.826569,-6.944612,3.105681,-6.578375,-0.004227,-0.0271,-0.00386,0.015899,-0.007957,0.021239,0.713411,0.590737,-0.240182,-0.290494,-0.010874,-0.046158
151,341885177977312,-0.054977,9.88504,1.842117,-6.943742,3.119702,-6.5698,-0.009552,-0.031357,-0.005981,0.015065,-0.011303,0.027487,0.713388,0.590718,-0.240211,-0.290565,-0.010876,-0.046226
152,341885182890643,-0.022659,9.898804,1.807404,-6.931197,3.09137,-6.60724,-0.01062,-0.028168,-0.00386,0.012076,-0.008934,0.026372,0.713365,0.590706,-0.240251,-0.290615,-0.010877,-0.046291
153,341885187834490,-0.036423,9.891617,1.85289,-6.937083,3.133226,-6.583204,-0.011688,-0.028168,-0.00386,0.011316,-0.009074,0.027103,0.713353,0.590679,-0.240281,-0.290675,-0.010877,-0.046354
154,341885192778338,-0.02446,9.868286,1.837936,-6.913206,3.116876,-6.576798,-0.009552,-0.028168,-0.00386,0.012848,-0.008794,0.025635,0.713336,0.590657,-0.240317,-0.290729,-0.010877,-0.046433
155,341885197722186,-0.046005,9.847336,1.836136,-6.915087,3.109308,-6.546555,-0.013809,-0.029236,-0.005981,0.010555,-0.011578,0.028909,0.713322,0.590631,-0.240342,-0.290797,-0.010876,-0.046509
156,341885202635516,-0.034027,9.84613,1.858887,-6.906751,3.133261,-6.548461,-0.015945,-0.030289,-0.002792,0.009766,-0.008867,0.031709,0.713319,0.59059,-0.240373,-0.290861,-0.010872,-0.046583
157,341885207579363,-0.02565,9.856903,1.861282,-6.909252,3.138521,-6.560136,-0.019135,-0.028168,-0.001724,0.006006,-0.007956,0.032607,0.713323,0.590544,-0.240403,-0.290919,-0.010865,-0.046655
158,341885212523211,-0.063354,9.853912,1.842117,-6.93509,3.114513,-6.534618,-0.023392,-0.026031,-0.002792,0.001473,-0.009281,0.033827,0.713326,0.590502,-0.240415,-0.290987,-0.010857,-0.046724
159,341885217467059,-0.053192,9.861694,1.788254,-6.934175,3.063973,-6.556145,-0.025528,-0.026031,-0.001724,-5.1e-05,-0.008514,0.035493,0.71332,0.590472,-0.240437,-0.291046,-0.010847,-0.046791
160,341885222410906,-0.023849,9.889832,1.83374,-6.93371,3.116667,-6.586513,-0.026596,-0.022842,-0.002792,-0.003039,-0.009281,0.033786,0.71333,0.590427,-0.240455,-0.291099,-0.010836,-0.046856
161,341885227354754,-0.037018,9.879654,1.879227,-6.936842,3.158853,-6.560658,-0.025528,-0.022842,-0.001724,-0.002272,-0.008096,0.033252,0.713348,0.590371,-0.240466,-0.291157,-0.010824,-0.04692
162,341885232298602,-0.001114,9.910782,1.907364,-6.933668,3.19619,-6.600769,-0.023392,-0.020706,-0.001724,-0.002236,-0.007534,0.030284,0.713373,0.59031,-0.240483,-0.291205,-0.010811,-0.046982
163,341885237211932,0.030014,9.903595,1.936096,-6.907136,3.228483,-6.610524,-0.020203,-0.021774,-0.004929,0.000795,-0.010409,0.028241,0.713401,0.590245,-0.240505,-0.291252,-0.010796,-0.047043
164,341885242125262,9.2e-05,9.887436,1.93251,-6.91786,3.219526,-6.578274,-0.015945,-0.01857,-0.00386,0.001599,-0.008374,0.023266,0.713421,0.590192,-0.240517,-0.291298,-0.010779,-0.047102
165,341885247069109,0.01564,9.873062,1.898987,-6.897298,3.187206,-6.584265,-0.012741,-0.01857,-0.00386,0.00389,-0.007953,0.021064,0.713431,0.590152,-0.24054,-0.291335,-0.010762,-0.04716
166,341885252135027,0.001282,9.853912,1.940887,-6.894831,3.224393,-6.552187,-0.01062,-0.016449,-0.005981,0.003925,-0.009475,0.017718,0.713447,0.590107,-0.240549,-0.291381,-0.010743,-0.047217
167,341885256956805,-0.065155,9.868881,1.948074,-6.953551,3.224604,-6.51491,-0.007416,-0.016449,-0.009186,0.006219,-0.012201,0.014913,0.71345,0.590077,-0.240535,-0.291446,-0.010727,-0.047273
168,341885261900652,-0.050186,9.88623,1.915741,-6.95568,3.196897,-6.54282,-0.005295,-0.015381,-0.009186,0.006988,-0.011778,0.012705,0.713444,0.59006,-0.24053,-0.2915,-0.010713,-0.047329
169,341885266844500,-0.023849,9.910172,1.91095,-6.954117,3.198646,-6.578191,-0.001022,-0.011124,-0.00705,0.007061,-0.008547,0.007183,0.713435,0.590052,-0.240532,-0.291535,-0.010704,-0.047383
170,341885271788348,-0.029846,9.919754,1.901382,-6.965632,3.189357,-6.582213,0.002167,-0.012192,-0.005981,0.010086,-0.007218,0.005941,0.713419,0.590052,-0.24054,-0.291568,-0.010699,-0.047436
171,341885276701678,-0.066956,9.903,1.895996,-6.980992,3.176257,-6.545674,0.004303,-0.012192,-0.005981,0.011612,-0.006934,0.004472,0.713396,0.590061,-0.240539,-0.291608,-0.010699,-0.047488
172,341885281645525,-0.068146,9.930527,1.904968,-7.001614,3.18793,-6.562262,0.005371,-0.010056,-0.004929,0.01088,-0.005474,0.002437,0.713373,0.590072,-0.240536,-0.291643,-0.010705,-0.047538
173,341885286589373,-0.058578,9.926941,1.881027,-6.992724,3.164452,-6.570691,0.007492,-0.010056,-0.00386,0.012394,-0.004142,0.00118,0.713345,0.590091,-0.240541,-0.291671,-0.010716,-0.047586
174,341885291533221,-0.060974,9.888031,1.878036,-6.967647,3.155321,-6.542139,0.006424,-0.010056,-0.00386,0.011631,-0.004283,0.001914,0.713318,0.590107,-0.240545,-0.291699,-0.010733,-0.047633
175,341885296477068,-0.078323,9.894608,1.909164,-6.984813,3.183936,-6.529113,0.006424,-0.008987,-0.002792,0.010882,-0.003091,0.001364,0.713306,0.590122,-0.240526,-0.291716,-0.010755,-0.047677
176,341885301420916,-0.059769,9.880249,1.889404,-6.961584,3.164477,-6.535697,0.007492,-0.00473,-0.002792,0.008665,-0.002381,-0.002356,0.713289,0.590143,-0.240514,-0.291726,-0.010782,-0.047719
177,341885306334246,-0.077728,9.873672,1.890015,-6.969925,3.161171,-6.518802,0.007492,-0.003662,-0.002792,0.007917,-0.002239,-0.003105,0.713271,0.590164,-0.240496,-0.291741,-0.010812,-0.047759
178,341885311278094,-0.100479,9.889221,1.979187,-6.997337,3.247498,-6.497319,0.007492,0.002731,-0.000656,0.003439,0.000711,-0.007189,0.713272,0.590163,-0.240463,-0.291769,-0.01084,-0.047759
179,341885316221941,-0.037628,9.903,1.867859,-6.961981,3.14769,-6.571354,0.010696,0.002731,0.000397,0.005726,0.002169,-0.009194,0.713248,0.590192,-0.240466,-0.291766,-0.010874,-0.047756
180,341885321165789,-0.023849,9.851517,1.796631,-6.916002,3.071831,-6.558461,0.010696,0.001663,-0.000656,0.006475,0.000992,-0.008643,0.71321,0.590237,-0.240479,-0.291754,-0.010913,-0.04775
181,341885326109637,-0.035233,9.863495,1.822968,-6.932617,3.096959,-6.554445,0.007492,0.00592,-0.002792,0.00121,-0.000965,-0.009827,0.713181,0.590274,-0.240478,-0.291754,-0.010954,-0.047742
182,341885331022967,-0.040619,9.90419,1.875046,-6.965097,3.152187,-6.569749,0.00856,0.003799,-0.002792,0.003457,-0.001106,-0.009073,0.71316,0.590299,-0.240472,-0.291759,-0.010998,-0.047731
183,341885335966814,-0.086105,9.88504,1.924118,-6.984377,3.191305,-6.515944,0.00856,0.00592,-0.000656,0.001969,0.001274,-0.010161,0.713148,0.590312,-0.24045,-0.291778,-0.011044,-0.047717
184,341885341002215,-0.028641,9.913773,1.961227,-6.963221,3.239139,-6.56899,0.011749,0.009125,0.001465,0.002,0.004205,-0.014204,0.713153,0.59032,-0.240433,-0.291765,-0.01109,-0.047703
185,341885345885027,-0.027451,9.911377,1.838531,-6.960284,3.11763,-6.591748,0.014954,0.006989,0.000397,0.005787,0.003294,-0.015109,0.713122,0.590368,-0.240434,-0.291743,-0.011137,-0.047688
186,341885350889910,-0.075333,9.870667,1.849899,-6.965845,3.116083,-6.528766,0.013885,0.008057,-0.000656,0.004278,0.002259,-0.015321,0.713092,0.590415,-0.240415,-0.291736,-0.011189,-0.047675
187,341885355681170,-0.0448,9.84314,1.87146,-6.924598,3.137148,-6.526867,0.012817,0.006989,0.002533,0.004258,0.005108,-0.013241,0.713076,0.590445,-0.240408,-0.291721,-0.011242,-0.047666
188,341885360625018,-0.020264,9.854507,1.851105,-6.91473,3.121494,-6.55599,0.010696,0.006989,0.002533,0.002744,0.004827,-0.011783,0.71306,0.590475,-0.240409,-0.291698,-0.011298,-0.047661
189,341885365568865,0.007263,9.852722,1.898392,-6.893456,3.171265,-6.565322,0.012817,0.011246,0.002533,0.00128,0.005671,-0.016229,0.713058,0.590495,-0.240406,-0.291666,-0.011354,-0.047659
190,341885370512713,0.044983,9.875458,1.906174,-6.881981,3.186836,-6.60626,0.018143,0.010193,0.001465,0.005824,0.005183,-0.01935,0.713051,0.590519,-0.240418,-0.291625,-0.011408,-0.047659
191,341885375487078,0.038986,9.885635,1.924728,-6.892893,3.205505,-6.606409,0.020279,0.013382,0.000397,0.005121,0.004837,-0.023256,0.713045,0.590545,-0.240421,-0.291584,-0.011459,-0.04766
192,341885380430926,0.043182,9.879059,1.934296,-6.884758,3.214405,-6.60355,0.024536,0.01445,-0.000656,0.007418,0.004503,-0.027128,0.713037,0.590575,-0.240423,-0.291541,-0.011506,-0.047661
193,341885385374773,-0.060364,9.888031,1.879227,-6.964532,3.146715,-6.549943,0.026672,0.01445,-0.000656,0.008946,0.004781,-0.028596,0.713002,0.590638,-0.240402,-0.291516,-0.011546,-0.04766
194,341885390318621,-0.005905,9.874268,1.87384,-6.915429,3.145963,-6.579672,0.026672,0.016571,0.000397,0.007463,0.006092,-0.029889,0.712973,0.590696,-0.240396,-0.291473,-0.011582,-0.047659
195,341885395262469,0.05455,9.867676,1.947464,-6.86717,3.225326,-6.60347,0.028793,0.012314,0.002533,0.011956,0.007904,-0.027959,0.712966,0.590724,-0.24041,-0.291423,-0.011615,-0.047658
196,341885400145281,0.033005,9.905396,1.957642,-6.908579,3.237186,-6.613808,0.029861,0.010193,-0.000656,0.014209,0.004628,-0.027798,0.712952,0.590755,-0.240418,-0.291388,-0.011644,-0.047658
197,341885405089129,-0.002304,9.908386,1.954056,-6.935628,3.228703,-6.592965,0.031998,0.010193,-0.00386,0.015742,0.001758,-0.029863,0.712928,0.590798,-0.240413,-0.291366,-0.011661,-0.04762
198,341885410032977,0.05455,9.912567,2.025284,-6.897625,3.306475,-6.622216,0.038391,0.011246,-0.004929,0.019577,0.001684,-0.035193,0.712917,0.590825,-0.240417,-0.291333,-0.011673,-0.047585
199,341885414976824,-0.029251,9.932327,2.032455,-6.971108,3.304232,-6.577874,0.043716,0.011246,-0.005981,0.023386,0.001347,-0.039046,0.71289,0.590871,-0.240398,-0.29132,-0.01168,-0.047553
200,341885419920672,-0.107651,9.919159,1.8116,-7.017341,3.072607,-6.557383,0.046906,0.015518,-0.005981,0.022682,0.002319,-0.044237,0.712802,0.590998,-0.240377,-0.291297,-0.011682,-0.047523
201,341885424864519,-0.114243,9.852722,1.677521,-6.975126,2.928176,-6.53274,0.044785,0.012314,-0.002792,0.023404,0.00474,-0.039936,0.712688,0.591153,-0.240376,-0.291262,-0.01168,-0.047495
202,341885429808367,-0.139374,9.836548,1.643997,-6.98139,2.886987,-6.511939,0.035187,0.013382,0.003601,0.015788,0.009895,-0.032909,0.712584,0.591299,-0.240371,-0.291224,-0.011677,-0.047468
203,341885434752215,-0.034027,9.845535,1.736786,-6.912162,2.991913,-6.574399,0.024536,0.008057,0.008926,0.01189,0.013032,-0.020867,0.71253,0.591379,-0.240396,-0.291174,-0.011674,-0.047442
204,341885439604510,0.031815,9.888031,1.839722,-6.894547,3.107054,-6.631003,0.021347,0.006989,0.009995,0.010356,0.013523,-0.017729,0.71251,0.591415,-0.240431,-0.29112,-0.011671,-0.047416
205,341885444578875,0.01326,9.862885,1.942078,-6.889886,3.202193,-6.582085,0.021347,0.010193,0.008926,0.00812,0.012891,-0.020178,0.712516,0.591425,-0.24044,-0.291078,-0.01167,-0.047389
206,341885449553240,0.065918,9.876053,1.980392,-6.860998,3.249014,-6.620678,0.023468,0.008057,0.00679,0.011135,0.010787,-0.020529,0.712529,0.591423,-0.240462,-0.291032,-0.01167,-0.047363
207,341885454375018,0.100037,9.938309,1.95285,-6.879571,3.234929,-6.693321,0.02774,0.008057,0.004669,0.014194,0.009256,-0.023855,0.71253,0.591435,-0.240499,-0.290976,-0.011672,-0.047334
208,341885459257830,0.038391,9.913773,1.915741,-6.90598,3.186822,-6.64124,0.033066,0.010193,0.002533,0.016513,0.008126,-0.02941,0.712508,0.591476,-0.240517,-0.29093,-0.011676,-0.047306
209,341885464384783,-0.00769,9.895813,1.913956,-6.925947,3.176124,-6.598019,0.033066,0.010193,0.004669,0.016512,0.010221,-0.029016,0.712482,0.591523,-0.240526,-0.29089,-0.011681,-0.047277
210,341885469328631,0.001282,9.911377,1.9319,-6.929979,3.196505,-6.612517,0.035187,0.010193,0.00679,0.018028,0.012577,-0.030082,0.71246,0.591566,-0.240539,-0.290846,-0.011687,-0.047248
211,341885474272478,0.028809,9.940109,1.944473,-6.929958,3.215748,-6.649975,0.039459,0.009125,0.004669,0.021834,0.010902,-0.032657,0.712435,0.59161,-0.240561,-0.290799,-0.011693,-0.047219
212,341885479216326,0.050369,9.905991,1.94986,-6.890303,3.218916,-6.640436,0.044785,0.006989,0.003601,0.027139,0.010256,-0.035011,0.712406,0.591656,-0.240594,-0.290749,-0.011699,-0.047191
213,341885484129656,0.030609,9.90239,1.954056,-6.901488,3.219337,-6.624347,0.047974,0.010193,0.003601,0.027182,0.011081,-0.039455,0.712373,0.591711,-0.240617,-0.2907,-0.011707,-0.047164
214,341885489073504,-0.081314,9.92395,1.964233,-6.99601,3.216218,-6.562122,0.052231,0.021912,0.001465,0.022044,0.011057,-0.051011,0.71233,0.591794,-0.240585,-0.290663,-0.011711,-0.047108
215,341885494017352,-0.06575,9.917358,1.9319,-6.979746,3.183984,-6.575402,0.056503,0.016571,0.002533,0.028835,0.011952,-0.049993,0.712273,0.591886,-0.240576,-0.290622,-0.011716,-0.047053
216,341885498930682,-0.037628,9.933517,1.925323,-6.970274,3.181658,-6.608742,0.06076,0.019775,0.003601,0.029645,0.013957,-0.054974,0.712214,0.591986,-0.240575,-0.290565,-0.011722,-0.046998
217,341885503874529,-0.017868,9.880844,1.893005,-6.918456,3.143707,-6.592928,0.066086,0.025101,0.000397,0.029746,0.012171,-0.062965,0.712144,0.592105,-0.240571,-0.290494,-0.011728,-0.046944
218,341885508818377,-0.036423,9.889832,1.916336,-6.937342,3.163508,-6.583908,0.068207,0.022964,0.000397,0.032764,0.012149,-0.062918,0.712075,0.592221,-0.240565,-0.290433,-0.011736,-0.04689
219,341885513762225,-0.011887,9.866486,1.885818,-6.90262,3.131507,-6.591767,0.0746,0.025101,0.000397,0.035854,0.013227,-0.068811,0.711994,0.592354,-0.240569,-0.290357,-0.011744,-0.046837
220,341885518706072,-0.070541,9.852112,1.833145,-6.933737,3.067584,-6.553053,0.076736,0.025101,0.000397,0.037391,0.013477,-0.070277,0.711893,0.592511,-0.240563,-0.290288,-0.011753,-0.046785
221,341885523649920,-0.095078,9.84494,1.786453,-6.945555,3.014564,-6.541789,0.075668,0.024033,0.001465,0.037379,0.014227,-0.068599,0.711782,0.59268,-0.240558,-0.290222,-0.011774,-0.046682
222,341885528563250,-0.076523,9.825775,1.7715,-6.918071,2.996921,-6.54589,0.0746,0.026169,0.003601,0.035129,0.016439,-0.068983,0.711675,0.592846,-0.240558,-0.290145,-0.011786,-0.046631
223,341885533476580,0.018036,9.810226,1.79245,-6.838754,3.025542,-6.597824,0.072479,0.020844,0.004669,0.037333,0.016508,-0.063586,0.711586,0.592984,-0.240591,-0.290054,-0.011799,-0.046583
224,341885538450945,-0.071747,9.875458,1.807999,-6.947999,3.035069,-6.581201,0.0746,0.019775,0.002533,0.039608,0.014518,-0.064677,0.711482,0.593137,-0.240598,-0.289989,-0.011812,-0.046533
225,341885543272723,-0.138779,9.895813,1.798431,-7.00944,3.016748,-6.553451,0.073547,0.02829,0.003601,0.032918,0.016503,-0.069761,0.71138,0.5933,-0.240572,-0.289929,-0.011827,-0.046485
226,341885548430193,0.020432,9.929337,1.815186,-6.917569,3.055749,-6.685547,0.072479,0.031494,0.007858,0.029922,0.020935,-0.070521,0.711298,0.593447,-0.240592,-0.289811,-0.011841,-0.04644
227,341885553251971,-0.072342,9.936508,1.860672,-6.988071,3.087349,-6.620936,0.0746,0.033615,0.004669,0.029978,0.018315,-0.074046,0.71122,0.593589,-0.240572,-0.289731,-0.011857,-0.046393
228,341885558195818,-0.079529,9.919159,1.849304,-6.980042,3.070703,-6.60801,0.076736,0.031494,0.007858,0.032995,0.021427,-0.073446,0.711136,0.593736,-0.24056,-0.289645,-0.011875,-0.046347
229,341885563139666,0.016846,9.953278,1.87146,-6.933611,3.10714,-6.696349,0.080994,0.031494,0.007858,0.036058,0.021936,-0.076369,0.71106,0.593874,-0.240577,-0.289534,-0.011915,-0.046253
230,341885568083514,0.021027,9.969437,1.917542,-6.940747,3.153263,-6.704487,0.085251,0.032562,0.00679,0.038379,0.021528,-0.080235,0.710989,0.594007,-0.24059,-0.289426,-0.011938,-0.046205
231,341885573027361,-0.0466,9.916168,1.845123,-6.950764,3.064201,-6.635851,0.089523,0.033615,0.007858,0.040719,0.023215,-0.08372,0.710892,0.594172,-0.240592,-0.289322,-0.011964,-0.046157
232,341885577971209,-0.001709,9.892822,1.8116,-6.901113,3.031367,-6.658482,0.093781,0.029358,0.009995,0.04675,0.025274,-0.083261,0.710787,0.594343,-0.240624,-0.289204,-0.011991,-0.046106
233,341885582884539,0.004272,9.909576,1.894791,-6.907344,3.11395,-6.661977,0.09697,0.034683,0.008926,0.045342,0.025256,-0.089398,0.710701,0.594497,-0.240639,-0.289086,-0.012022,-0.046055
234,341885587828387,0.010254,9.905991,1.939682,-6.899253,3.156266,-6.658053,0.104431,0.037888,0.007858,0.048478,0.025499,-0.096968,0.710617,0.594653,-0.240649,-0.288965,-0.012055,-0.046003
235,341885592772234,0.131165,9.894012,2.001938,-6.802943,3.229498,-6.723589,0.114014,0.031494,0.003601,0.05983,0.021652,-0.099777,0.71054,0.594789,-0.240697,-0.288831,-0.012094,-0.04592
236,341885597716082,0.050369,9.894012,2.006729,-6.859887,3.221568,-6.669676,0.12468,0.030426,-0.004929,0.068254,0.014398,-0.107839,0.710436,0.594956,-0.240718,-0.288728,-0.012134,-0.045837
237,341885602659930,-0.093292,9.918564,1.958847,-6.978983,3.155546,-6.599994,0.139587,0.037888,-0.005981,0.073773,0.016084,-0.12351,0.710286,0.595185,-0.240698,-0.288639,-0.012177,-0.045753
238,341885607573260,-0.059769,9.900009,1.87146,-6.940629,3.066897,-6.628573,0.147049,0.041077,-0.000656,0.076923,0.022568,-0.129941,0.710118,0.595443,-0.240705,-0.288516,-0.012221,-0.04567
239,341885612517107,-0.026245,9.892822,1.852295,-6.909982,3.046779,-6.653486,0.152374,0.04747,0.000397,0.076322,0.024963,-0.137924,0.709946,0.595715,-0.240717,-0.288367,-0.012266,-0.045586
240,341885617460955,-0.041214,9.910172,1.782272,-6.931036,2.972996,-6.671708,0.156631,0.051727,-0.000656,0.076453,0.02487,-0.144034,0.709751,0.59602,-0.240726,-0.288209,-0.012312,-0.045502
241,341885622404803,0.037201,9.908386,1.73259,-6.871637,2.928557,-6.736719,0.156631,0.049606,0.001465,0.07796,0.026582,-0.142168,0.709555,0.596324,-0.24077,-0.288025,-0.012358,-0.045417
242,341885627348650,-0.091492,9.862289,1.672134,-6.930413,2.841772,-6.630459,0.1577,0.048538,-0.001724,0.079511,0.023329,-0.142695,0.709331,0.59666,-0.240779,-0.287876,-0.012403,-0.045332
243,341885632261980,-0.227371,9.840744,1.517715,-7.011751,2.663507,-6.552578,0.153442,0.036819,0.002533,0.084621,0.025468,-0.130756,0.709061,0.597032,-0.240788,-0.287759,-0.01245,-0.045246
244,341885637175311,-0.179474,9.868286,1.482986,-6.995187,2.632039,-6.614702,0.143845,0.038956,0.012115,0.076244,0.033906,-0.124068,0.708812,0.597387,-0.240819,-0.287612,-0.012496,-0.045159
245,341885642241228,0.079697,9.92514,1.492569,-6.846578,2.674812,-6.83463,0.131058,0.045334,0.01532,0.062645,0.03619,-0.119298,0.70861,0.597697,-0.24091,-0.287388,-0.012542,-0.045068
246,341885647032488,-0.078323,9.922745,1.704453,-6.957476,2.860352,-6.692092,0.126801,0.045334,0.00679,0.059629,0.027205,-0.11783,0.708455,0.597945,-0.240913,-0.287253,-0.012588,-0.044977
247,341885651976336,-0.157333,9.939499,1.790054,-7.024729,2.933181,-6.638709,0.130005,0.044281,0.011063,0.062681,0.031608,-0.11856,0.708306,0.598186,-0.240895,-0.287135,-0.012634,-0.044886
248,341885656798113,0.034195,9.963455,1.812195,-6.902052,2.977701,-6.786068,0.134262,0.041077,0.016388,0.067984,0.036905,-0.118315,0.708182,0.598393,-0.240944,-0.286968,-0.012678,-0.044794
249,341885661833514,0.15332,9.958664,1.849304,-6.811216,3.025227,-6.861023,0.140656,0.042145,0.012115,0.07188,0.033489,-0.124173,0.708061,0.598599,-0.241021,-0.28677,-0.012722,-0.044702
250,341885666807879,0.058746,9.945496,1.983978,-6.868551,3.142437,-6.767626,0.152374,0.049606,0.003601,0.075178,0.027282,-0.138909,0.707949,0.598803,-0.241037,-0.28661,-0.012765,-0.044609
251,341885671751727,0.044983,9.919159,2.010315,-6.85857,3.160394,-6.738327,0.169418,0.045334,0.003601,0.090441,0.028684,-0.147541,0.707817,0.599022,-0.241063,-0.286455,-0.012807,-0.044516
252,341885676695574,0.126373,9.934113,2.000732,-6.808741,3.158635,-6.809514,0.187531,0.041077,0.001465,0.106468,0.028072,-0.15727,0.707661,0.599263,-0.241131,-0.286278,-0.012849,-0.044422
253,341885681639422,0.202988,9.963455,1.863678,-6.771721,3.031088,-6.909498,0.202438,0.050659,-0.005981,0.110602,0.023426,-0.175504,0.707459,0.599572,-0.241218,-0.286057,-0.012893,-0.044315
254,341885686552752,-0.023254,9.96225,1.889404,-6.932073,3.024046,-6.754142,0.214157,0.058121,-0.009186,0.113919,0.022338,-0.189339,0.707229,0.599922,-0.241226,-0.285887,-0.012936,-0.044208
255,341885691466082,-0.056183,9.935913,1.782272,-6.935736,2.904299,-6.735178,0.227997,0.052795,-0.00705,0.127626,0.025227,-0.194666,0.70695,0.600322,-0.241257,-0.28571,-0.012979,-0.0441
256,341885696440447,0.07431,9.950287,1.622452,-6.849588,2.755618,-6.865559,0.232269,0.050659,-0.00386,0.132228,0.02838,-0.195552,0.706639,0.60076,-0.241355,-0.285477,-0.013021,-0.043992
257,341885701384295,-0.027451,9.917953,1.730789,-6.898746,2.839752,-6.760578,0.235458,0.062378,-0.00705,0.126467,0.026728,-0.206574,0.706349,0.601186,-0.241387,-0.285271,-0.013062,-0.043884
258,341885706328143,-0.135788,9.927536,1.646393,-6.981309,2.736607,-6.712483,0.243988,0.067703,-0.005981,0.128993,0.029118,-0.216016,0.706021,0.601664,-0.241394,-0.285069,-0.013101,-0.043775
259,341885711271990,-0.137589,9.891022,1.424332,-6.955018,2.503322,-6.726144,0.246109,0.058121,-0.000656,0.137211,0.033255,-0.209798,0.705638,0.602194,-0.24145,-0.284849,-0.013138,-0.043666
260,341885716215838,-0.054382,9.937714,1.389023,-6.925323,2.473684,-6.827247,0.241852,0.057053,0.003601,0.13493,0.036589,-0.205464,0.705265,0.602713,-0.241538,-0.284601,-0.013174,-0.043558
261,341885721159686,-0.197433,9.920349,1.453064,-7.014679,2.510072,-6.712489,0.232269,0.063446,0.004669,0.123652,0.037062,-0.203305,0.704915,0.603212,-0.24156,-0.284392,-0.013207,-0.043449
262,341885726103533,-0.166306,9.891022,1.37825,-6.969782,2.427374,-6.729754,0.229065,0.059189,0.011063,0.12433,0.042314,-0.1971,0.704561,0.603711,-0.241613,-0.284166,-0.013237,-0.043342
263,341885731016863,0.052765,9.937119,1.41655,-6.841447,2.486773,-6.911324,0.221619,0.057053,0.014252,0.120483,0.044179,-0.190013,0.704254,0.604153,-0.241726,-0.283892,-0.013266,-0.043231
264,341885735960711,-0.16452,9.919159,1.614075,-6.984174,2.649444,-6.724862,0.217346,0.068771,0.011063,0.109365,0.041652,-0.195948,0.703985,0.604563,-0.241726,-0.283685,-0.013291,-0.043127
265,341885740996111,-0.169907,9.938904,1.571579,-6.999161,2.601559,-6.747167,0.22374,0.070908,0.019577,0.112555,0.050768,-0.200561,0.7037,0.604999,-0.241743,-0.283449,-0.013315,-0.043019
266,341885745970477,0.074905,9.941299,1.426727,-6.821117,2.477799,-6.942874,0.224808,0.058121,0.022781,0.122224,0.052426,-0.191699,0.703403,0.605432,-0.241872,-0.283151,-0.013335,-0.042913
267,341885750914324,0.043182,9.961655,1.49736,-6.855915,2.539887,-6.929925,0.220551,0.060257,0.017441,0.117747,0.0467,-0.191135,0.703128,0.605839,-0.241967,-0.282881,-0.013352,-0.042805
268,341885755736102,-0.117233,9.955673,1.610489,-6.965675,2.627763,-6.804193,0.224808,0.068771,0.019577,0.115004,0.04996,-0.199823,0.702873,0.606231,-0.241993,-0.282653,-0.013368,-0.042697
269,341885760618914,0.040787,9.973618,1.453659,-6.861002,2.484297,-6.952886,0.227997,0.059189,0.024902,0.12398,0.054308,-0.194385,0.702588,0.606648,-0.242107,-0.282368,-0.01338,-0.042586
270,341885765532244,0.044983,9.959259,1.454269,-6.845765,2.476986,-6.950094,0.230133,0.057053,0.020645,0.127072,0.049852,-0.194962,0.702298,0.607068,-0.242219,-0.282092,-0.013392,-0.042473
271,341885770476092,0.037201,9.962845,1.356094,-6.851305,2.371878,-6.966521,0.232269,0.059189,0.019577,0.127209,0.048973,-0.198129,0.70198,0.607522,-0.242336,-0.281805,-0.013402,-0.042358
272,341885775419939,0.005478,9.973618,1.30043,-6.879546,2.306807,-6.965242,0.229065,0.050659,0.019577,0.13083,0.047517,-0.189858,0.701647,0.607982,-0.24246,-0.281535,-0.013411,-0.042242
273,341885780363787,-0.050797,9.972427,1.380035,-6.917604,2.372344,-6.9192,0.224808,0.053864,0.019577,0.125592,0.04719,-0.18927,0.70134,0.608416,-0.24255,-0.281288,-0.013421,-0.042121
274,341885785307635,-0.063965,9.956268,1.289062,-6.91359,2.2723,-6.916075,0.219482,0.059189,0.017441,0.118126,0.044868,-0.189771,0.701052,0.608833,-0.242626,-0.281037,-0.013432,-0.041999
275,341885790251482,-0.053192,9.943695,1.256744,-6.894981,2.233248,-6.923243,0.216293,0.053864,0.020645,0.119535,0.046979,-0.183343,0.700767,0.60924,-0.242715,-0.280789,-0.013443,-0.041876
276,341885795195330,0.027023,9.913162,1.259735,-6.813691,2.234366,-6.959864,0.212021,0.054932,0.021713,0.115756,0.047519,-0.181064,0.700491,0.609637,-0.242804,-0.280538,-0.013455,-0.041753
277,341885800139178,-0.04541,9.907776,1.20047,-6.860433,2.161581,-6.918766,0.206696,0.049606,0.020645,0.115617,0.045224,-0.173775,0.700217,0.610025,-0.242894,-0.280301,-0.013469,-0.041631
278,341885805083025,-0.033432,9.874863,1.090942,-6.827329,2.044711,-6.92178,0.198181,0.038956,0.021713,0.116815,0.044237,-0.160194,0.699946,0.610394,-0.243001,-0.280082,-0.013484,-0.041508
279,341885809996355,-0.054382,9.911972,1.20108,-6.866546,2.149818,-6.922544,0.184326,0.043213,0.023834,0.103872,0.04528,-0.153531,0.699705,0.610734,-0.24309,-0.279865,-0.0135,-0.041386
280,341885814970721,0.041977,9.952667,1.230408,-6.822671,2.186688,-7.017172,0.174744,0.050659,0.02597,0.091837,0.047066,-0.152075,0.699484,0.611062,-0.243167,-0.279633,-0.013518,-0.041263
281,341885819914568,0.09465,10.011337,1.257935,-6.82295,2.21944,-7.09504,0.170486,0.04747,0.023834,0.090988,0.044103,-0.147184,0.69927,0.611377,-0.243245,-0.279412,-0.013537,-0.041139
282,341885824858416,0.096451,10.037674,1.365677,-6.838193,2.323491,-7.104219,0.171539,0.044281,0.01532,0.093994,0.035324,-0.14676,0.69905,0.611693,-0.243315,-0.279212,-0.013556,-0.041019
283,341885829802264,0.159897,10.036469,1.37944,-6.789643,2.33741,-7.148162,0.171539,0.043213,0.011063,0.094768,0.030872,-0.146565,0.698828,0.612007,-0.243382,-0.279018,-0.013577,-0.040893
284,341885834715594,0.184433,10.029892,1.401596,-6.76567,2.355113,-7.160764,0.176865,0.045334,0.003601,0.097219,0.024033,-0.15271,0.698598,0.612334,-0.243438,-0.278831,-0.013597,-0.040768
285,341885839628924,0.047974,10.006546,1.478806,-6.847341,2.410684,-7.044341,0.18219,0.043213,-0.004929,0.102588,0.015729,-0.155927,0.698353,0.612671,-0.243481,-0.278666,-0.013618,-0.040645
286,341885844450701,-0.0448,10.00415,1.481201,-6.911642,2.39792,-6.9827,0.19072,0.044281,-0.005981,0.108083,0.015418,-0.162638,0.698099,0.613018,-0.243522,-0.278502,-0.013638,-0.040515
287,341885849302996,0.015045,10.012527,1.393814,-6.872267,2.310651,-7.044607,0.198181,0.046402,-0.00386,0.112078,0.018234,-0.168967,0.697833,0.613383,-0.243571,-0.278323,-0.013659,-0.040382
288,341885854155291,-0.129807,10.0233,1.426727,-6.983557,2.324284,-6.95318,0.204575,0.043213,-0.00386,0.11895,0.018349,-0.171019,0.697555,0.613757,-0.243623,-0.278151,-0.013677,-0.040251
289,341885859343279,-0.130997,9.993973,1.317795,-6.962604,2.205731,-6.949106,0.212021,0.042145,-0.000656,0.125127,0.021902,-0.174909,0.697243,0.614171,-0.243693,-0.277956,-0.013694,-0.040118
290,341885864317644,-0.06636,10.024506,1.305817,-6.935036,2.194801,-7.020582,0.217346,0.044281,0.002533,0.127564,0.025535,-0.179672,0.69694,0.614577,-0.243768,-0.277755,-0.01371,-0.039983
291,341885869261492,-0.099869,10.027496,1.319595,-6.959799,2.198484,-7.002137,0.218414,0.046402,0.00679,0.126919,0.029846,-0.181396,0.696642,0.614979,-0.243844,-0.277545,-0.013725,-0.039846
292,341885874205340,-0.068146,10.009537,1.266922,-6.922652,2.1401,-7.021217,0.218414,0.045334,0.009995,0.127689,0.032731,-0.180233,0.696344,0.61538,-0.243928,-0.27733,-0.013739,-0.039707
293,341885879149187,-0.134583,9.999359,1.23819,-6.962259,2.097733,-6.976005,0.218414,0.045334,0.011063,0.12773,0.033591,-0.180108,0.696044,0.615782,-0.244012,-0.277114,-0.013768,-0.039585
294,341885884093035,-0.170502,9.971222,1.262726,-6.967286,2.109511,-6.932223,0.218414,0.049606,0.016388,0.124837,0.039048,-0.182551,0.695752,0.616183,-0.244094,-0.276886,-0.013796,-0.039462
295,341885889036883,0.007874,9.974228,1.133438,-6.837587,1.989485,-7.075271,0.218414,0.045334,0.019577,0.127807,0.041633,-0.179095,0.695458,0.616581,-0.244197,-0.276649,-0.013823,-0.039337
296,341885893980730,-0.063354,9.949081,1.238785,-6.870547,2.079035,-6.999724,0.216293,0.046402,0.017441,0.125579,0.039227,-0.178693,0.695169,0.616973,-0.244289,-0.27642,-0.013848,-0.039213
297,341885898924578,-0.056778,9.941299,1.298035,-6.858542,2.130855,-6.995515,0.218414,0.051727,0.017441,0.123521,0.039654,-0.183996,0.694882,0.617368,-0.244372,-0.276183,-0.013871,-0.039089
298,341885903868426,0.140747,9.993973,1.21904,-6.748523,2.065808,-7.18158,0.222672,0.058121,0.013184,0.122301,0.0361,-0.192026,0.69459,0.617778,-0.24445,-0.275932,-0.013892,-0.038963
299,341885908812273,0.042587,10.007141,1.334549,-6.826907,2.166195,-7.115242,0.224808,0.062378,0.007858,0.121008,0.031123,-0.197179,0.694297,0.618194,-0.244508,-0.275688,-0.013913,-0.038838
300,341885913725603,0.077301,10.008347,1.39859,-6.800098,2.226718,-7.136484,0.232269,0.064514,0.00679,0.125047,0.030636,-0.203916,0.694058,0.61855,-0.244565,-0.27544,-0.013932,-0.038712
301,341885918669451,0.232315,10.008942,1.345932,-6.68489,2.180645,-7.252694,0.243988,0.064514,0.001465,0.133661,0.026032,-0.212489,0.6938,0.618928,-0.244671,-0.275148,-0.013951,-0.038586
302,341885923613299,0.15332,10.075378,1.345322,-6.785303,2.17212,-7.251766,0.252502,0.070908,-0.00705,0.135575,0.018515,-0.223856,0.693519,0.619337,-0.244735,-0.274877,-0.013971,-0.038456
303,341885928557146,0.088669,10.058624,1.308212,-6.818331,2.120774,-7.204712,0.259964,0.074097,-0.012375,0.138921,0.013801,-0.231809,0.693213,0.619778,-0.244775,-0.27462,-0.013989,-0.038328
304,341885933500994,-0.010086,10.047241,1.282486,-6.879731,2.077567,-7.137576,0.269547,0.084747,-0.015579,0.138729,0.011935,-0.246358,0.692882,0.62026,-0.244771,-0.274371,-0.014008,-0.038202
305,341885938322771,-0.028046,10.037064,1.229813,-6.883146,2.013606,-7.129073,0.280197,0.082626,-0.013443,0.148046,0.014401,-0.25178,0.692533,0.620756,-0.244781,-0.274122,-0.014028,-0.038073
306,341885943236102,-0.009491,10.04007,1.061615,-6.868729,1.837566,-7.167554,0.282333,0.079422,-0.012375,0.151891,0.015026,-0.250751,0.692134,0.621305,-0.244821,-0.273847,-0.014048,-0.037939
307,341885948210467,-0.127411,10.005341,1.029892,-6.928253,1.783258,-7.0713,0.283401,0.085815,-0.010254,0.148408,0.017364,-0.25585,0.691719,0.621883,-0.244824,-0.273585,-0.014069,-0.037809
308,341885953184832,-0.207016,10.011337,1.00296,-6.987457,1.739367,-7.030342,0.286591,0.092209,-0.00705,0.146486,0.020919,-0.26228,0.691292,0.62248,-0.244802,-0.273324,-0.014091,-0.037676
309,341885958006609,-0.255493,10.038864,0.891022,-7.038418,1.614603,-7.035038,0.285522,0.095413,-0.000656,0.143627,0.027074,-0.263183,0.690855,0.62309,-0.24478,-0.273059,-0.014114,-0.037541
310,341885963042010,-0.155533,10.056824,0.796463,-6.974059,1.517176,-7.131544,0.280197,0.093277,0.007858,0.141296,0.034596,-0.257121,0.690404,0.623719,-0.24481,-0.272736,-0.014139,-0.037403
311,341885968016375,-0.232758,10.049042,0.828781,-7.022112,1.531881,-7.075833,0.273804,0.091141,0.016388,0.138173,0.042102,-0.250359,0.689975,0.624318,-0.244826,-0.272435,-0.014166,-0.037263
312,341885972990740,-0.207611,10.047241,0.841949,-6.999205,1.535929,-7.095852,0.270615,0.092209,0.024902,0.135208,0.050063,-0.248128,0.689568,0.624896,-0.244855,-0.272116,-0.014195,-0.037123
313,341885977934588,-0.151947,9.996368,0.910782,-6.920577,1.595328,-7.095108,0.265289,0.092209,0.032364,0.131408,0.056778,-0.243796,0.689204,0.625425,-0.244898,-0.271784,-0.014232,-0.036997
314,341885982878436,-0.205811,10.016113,0.851517,-6.969943,1.524492,-7.084184,0.261032,0.092209,0.038757,0.12839,0.062511,-0.240314,0.688832,0.625962,-0.244937,-0.271454,-0.014271,-0.036868
315,341885987791766,-0.051987,9.998169,0.879654,-6.841569,1.553583,-7.177675,0.255707,0.090088,0.047272,0.126031,0.070147,-0.234376,0.688502,0.626451,-0.245027,-0.271081,-0.014312,-0.036739
316,341885992735613,-0.018463,9.958664,0.880844,-6.786669,1.546634,-7.176373,0.253571,0.086884,0.049408,0.126757,0.071582,-0.230428,0.688181,0.626927,-0.245133,-0.270702,-0.014355,-0.036608
317,341885997679461,-0.046005,9.928131,0.858704,-6.782544,1.513123,-7.142466,0.249313,0.08902,0.051529,0.122296,0.073237,-0.228947,0.687863,0.627401,-0.245227,-0.270326,-0.0144,-0.036476
318,341886002623309,0.0354,9.94429,0.868881,-6.730303,1.522566,-7.213192,0.245041,0.086884,0.051529,0.120732,0.072505,-0.224535,0.687565,0.627851,-0.245342,-0.269937,-0.014447,-0.036344
319,341886007567156,0.191025,9.988586,0.903,-6.642402,1.563213,-7.352451,0.241852,0.090088,0.04834,0.116346,0.069023,-0.225043,0.687297,0.62827,-0.245482,-0.269514,-0.014497,-0.036211
320,341886012511004,0.214371,10.0233,0.876663,-6.645043,1.53348,-7.400869,0.238663,0.093277,0.040878,0.111966,0.061308,-0.225912,0.687013,0.62871,-0.245556,-0.269145,-0.014548,-0.036077
321,341886017424334,0.156311,10.067596,0.861694,-6.71404,1.510368,-7.40026,0.240784,0.094345,0.033432,0.112923,0.053798,-0.228801,0.686722,0.629156,-0.245615,-0.268791,-0.014602,-0.035943
322,341886022368182,0.196411,10.12146,0.886246,-6.717331,1.532746,-7.469667,0.24292,0.096466,0.02597,0.113178,0.046333,-0.232452,0.686423,0.629613,-0.245661,-0.268441,-0.014656,-0.03581
323,341886027312029,0.228729,10.123856,0.911377,-6.691487,1.551501,-7.496143,0.246109,0.096466,0.016388,0.115646,0.036677,-0.235424,0.686115,0.630079,-0.245695,-0.268105,-0.014712,-0.035678
324,341886032255877,0.131165,10.119675,0.889832,-6.75693,1.51514,-7.434065,0.252502,0.093277,0.005737,0.122627,0.025937,-0.238287,0.685786,0.630562,-0.245719,-0.267792,-0.014769,-0.03555
325,341886037169207,0.022827,10.131042,0.819794,-6.840961,1.43058,-7.380058,0.25676,0.091141,0.001465,0.127317,0.021489,-0.239923,0.685443,0.631054,-0.245738,-0.267491,-0.014829,-0.035419
326,341886042082537,0.037201,10.14241,0.800644,-6.83453,1.40368,-7.404709,0.257828,0.096466,0.001465,0.124616,0.021559,-0.244518,0.685102,0.631551,-0.245749,-0.267181,-0.01489,-0.035293
327,341886046995867,0.016251,10.108292,0.757553,-6.823245,1.348108,-7.374113,0.258896,0.09967,-0.000656,0.123357,0.019379,-0.247728,0.684758,0.632054,-0.245752,-0.26687,-0.014954,-0.035167
328,341886051939715,-0.051987,10.126846,0.697098,-6.882783,1.27565,-7.3513,0.258896,0.08902,-0.000656,0.130664,0.018446,-0.239873,0.684403,0.632556,-0.245771,-0.266574,-0.01502,-0.035042
329,341886057005633,-0.034637,10.120865,0.62706,-6.862618,1.196884,-7.368727,0.250381,0.087952,-0.000656,0.125213,0.017625,-0.233319,0.684049,0.633057,-0.245788,-0.266277,-0.015088,-0.03492
330,341886061857928,-0.057373,10.104706,0.681534,-6.865014,1.240271,-7.342081,0.24292,0.098602,-0.000656,0.112631,0.017552,-0.236091,0.68373,0.633529,-0.24578,-0.265982,-0.015158,-0.0348
331,341886066801775,-0.071136,10.096924,0.74498,-6.866285,1.293687,-7.32725,0.240784,0.101807,0.003601,0.109006,0.02158,-0.236657,0.683415,0.634003,-0.24577,-0.265673,-0.015231,-0.03468
332,341886071715105,-0.005295,10.110687,0.636047,-6.823439,1.180571,-7.394432,0.240784,0.093277,0.005737,0.114867,0.022963,-0.230193,0.683096,0.634469,-0.245781,-0.26537,-0.015307,-0.034561
333,341886076658953,-0.010696,10.074173,0.62886,-6.799468,1.162485,-7.368894,0.237595,0.091141,0.002533,0.114058,0.01922,-0.226685,0.682776,0.634933,-0.245789,-0.265077,-0.015385,-0.03447
334,341886081602801,0.010864,10.065201,0.66478,-6.773875,1.190433,-7.378879,0.233337,0.09967,0.002533,0.105277,0.019192,-0.230076,0.682469,0.635393,-0.245779,-0.264773,-0.015466,-0.03438
335,341886086546648,0.062332,10.078964,0.629456,-6.741535,1.150076,-7.430647,0.231201,0.095413,0.003601,0.106673,0.019667,-0.225399,0.682164,0.635845,-0.245779,-0.264472,-0.015549,-0.034292
336,341886091459978,0.051559,10.049042,0.603729,-6.725989,1.114082,-7.407433,0.227997,0.091141,0.001465,0.107282,0.016911,-0.220218,0.681861,0.636288,-0.245781,-0.264185,-0.015634,-0.034204
337,341886096403826,0.067123,10.038864,0.574387,-6.704214,1.07684,-7.416677,0.222672,0.092209,0.000397,0.102725,0.015403,-0.217476,0.681564,0.636727,-0.245777,-0.263899,-0.015721,-0.034118
338,341886101317156,0.13237,10.040665,0.612701,-6.653695,1.110151,-7.463505,0.218414,0.095413,-0.002792,0.097524,0.011947,-0.217169,0.681278,0.637157,-0.245761,-0.263616,-0.015809,-0.034032
339,341886106291521,0.185638,10.058014,0.677338,-6.622464,1.169637,-7.512115,0.219482,0.095413,-0.008118,0.098423,0.006446,-0.218205,0.680986,0.637593,-0.245738,-0.263337,-0.0159,-0.033946
340,341886111235369,0.129974,10.066406,0.80484,-6.665921,1.286369,-7.477158,0.222672,0.097534,-0.012375,0.099472,0.002209,-0.222147,0.680694,0.63803,-0.245703,-0.263065,-0.015991,-0.033862
341,341886116179217,0.192215,10.04425,0.768921,-6.601157,1.243328,-7.509601,0.233337,0.102859,-0.016647,0.10392,-0.001586,-0.233455,0.680386,0.638491,-0.245662,-0.262783,-0.016085,-0.033777
342,341886121092547,0.198212,10.080765,0.797653,-6.617564,1.264678,-7.543593,0.239716,0.102859,-0.023026,0.108777,-0.007938,-0.238072,0.680067,0.638961,-0.245615,-0.262509,-0.01618,-0.033693
343,341886126036394,0.001877,10.04306,0.771317,-6.734089,1.218254,-7.390935,0.248245,0.107132,-0.030487,0.112378,-0.015103,-0.247337,0.679726,0.63946,-0.245546,-0.262242,-0.016277,-0.033607
344,341886130980242,-0.087906,10.075974,0.72702,-6.8187,1.16138,-7.363284,0.258896,0.114578,-0.028366,0.115433,-0.012513,-0.259766,0.679371,0.639982,-0.245472,-0.261956,-0.016372,-0.033525
345,341886135924090,-0.074738,10.12207,0.594147,-6.835089,1.020732,-7.419874,0.263153,0.126297,-0.02623,0.110906,-0.010029,-0.271086,0.679014,0.640522,-0.245386,-0.261643,-0.016563,-0.033361
346,341886140837420,-0.107651,10.14122,0.558838,-6.867692,0.974316,-7.419814,0.266357,0.129501,-0.024094,0.111312,-0.007977,-0.275396,0.678654,0.641067,-0.2453,-0.261322,-0.016659,-0.033279
347,341886145659197,-0.123215,10.136429,0.537888,-6.871592,0.94218,-7.412502,0.269547,0.126297,-0.019836,0.115986,-0.004077,-0.274828,0.678297,0.641602,-0.245229,-0.261003,-0.016755,-0.033198
348,341886150816668,-0.107651,10.148407,0.438522,-6.86303,0.832984,-7.443051,0.269547,0.126297,-0.015579,0.116155,-0.000202,-0.274512,0.677914,0.642175,-0.245162,-0.260652,-0.016851,-0.033116
349,341886155699480,-0.16452,10.153183,0.387054,-6.903744,0.769262,-7.416915,0.266357,0.130554,-0.012375,0.111105,0.002687,-0.275304,0.677558,0.642715,-0.245093,-0.260312,-0.016947,-0.033035
350,341886160673846,-0.066956,10.144806,0.433731,-6.820692,0.809277,-7.47883,0.259964,0.133759,-0.004929,0.104369,0.009651,-0.272967,0.677216,0.643247,-0.245028,-0.259948,-0.017042,-0.032953
351,341886165556658,0.070114,10.174133,0.489395,-6.733309,0.861481,-7.594581,0.25676,0.134827,-0.001724,0.101441,0.012431,-0.271408,0.676892,0.643758,-0.244969,-0.259581,-0.017137,-0.032871
352,341886170469988,0.106033,10.10231,0.633652,-6.654144,0.994545,-7.563249,0.25676,0.13269,-0.011322,0.103066,0.002435,-0.270244,0.676566,0.644269,-0.244898,-0.259232,-0.017232,-0.032787
353,341886175413836,-0.130402,9.889221,1.918732,-6.689989,2.252601,-7.187844,0.294052,0.057053,-0.009186,0.181333,0.002909,-0.23857,0.676182,0.644743,-0.24495,-0.259006,-0.017327,-0.032702
354,341886180357684,0.431046,10.20047,0.66478,-6.476376,1.016711,-7.854953,0.360092,-0.032425,-0.000656,0.290135,0.010224,-0.215489,0.675602,0.64531,-0.24525,-0.258824,-0.01741,-0.032642
355,341886185301531,0.082092,10.190292,-0.530533,-6.720706,-0.203194,-7.676003,0.322815,0.15506,-0.027298,0.137752,-0.01196,-0.331481,0.675126,0.646004,-0.245173,-0.258406,-0.017492,-0.03258
356,341886190214861,-0.426682,9.992172,0.400223,-6.963144,0.692594,-7.156864,0.28447,0.230698,-0.028366,0.059203,-0.012351,-0.362342,0.674787,0.646647,-0.244911,-0.257932,-0.017574,-0.032516
357,341886195158709,-0.04361,10.107697,0.805435,-6.749808,1.102071,-7.486097,0.299377,0.142273,-0.004929,0.129269,0.008388,-0.305142,0.674406,0.647224,-0.24485,-0.257538,-0.017655,-0.032449
358,341886200102557,0.232925,10.251953,0.50856,-6.633616,0.806017,-7.794929,0.316422,0.114578,-0.00705,0.160581,0.00551,-0.295777,0.673972,0.647821,-0.244859,-0.257165,-0.017735,-0.03238
359,341886205015887,0.030609,10.227402,0.390045,-6.763137,0.668464,-7.65283,0.31749,0.136948,-0.018768,0.146777,-0.006009,-0.313571,0.673538,0.648443,-0.244805,-0.256784,-0.017815,-0.032309
360,341886209990252,-0.092087,10.213043,0.398422,-6.839799,0.660323,-7.566678,0.318558,0.151871,-0.0177,0.13792,-0.005008,-0.325285,0.673105,0.649085,-0.244723,-0.256377,-0.017894,-0.032234
361,341886214934100,-0.021469,10.233994,0.533691,-6.795448,0.78534,-7.630531,0.323883,0.156128,-0.0177,0.139342,-0.005264,-0.331882,0.672675,0.649726,-0.244638,-0.255962,-0.017973,-0.032157
362,341886219877947,0.056946,10.24057,0.490005,-6.735189,0.730737,-7.69519,0.335602,0.151871,-0.018768,0.151198,-0.006666,-0.336364,0.672223,0.650384,-0.244569,-0.255545,-0.018051,-0.032078
363,341886224821795,0.103638,10.25853,0.323608,-6.705905,0.55238,-7.751037,0.339859,0.146545,-0.023026,0.158173,-0.011487,-0.3352,0.671752,0.651053,-0.244509,-0.255136,-0.018127,-0.031999
364,341886229765643,0.088669,10.206467,0.138046,-6.676455,0.351444,-7.713654,0.337723,0.147598,-0.030487,0.156149,-0.019518,-0.334676,0.671273,0.651731,-0.244436,-0.254737,-0.018202,-0.03192
365,341886234709490,-0.051392,10.114288,-0.035522,-6.714142,0.158931,-7.562924,0.329208,0.158264,-0.03688,0.143004,-0.026423,-0.337101,0.670801,0.652413,-0.244326,-0.254339,-0.018275,-0.03184
366,341886239622820,-0.105255,10.10051,-0.146866,-6.739137,0.03296,-7.525694,0.310028,0.160385,-0.039017,0.127467,-0.029436,-0.325958,0.670358,0.653066,-0.244197,-0.253956,-0.018346,-0.031759
367,341886244536150,-0.153137,10.028091,-0.155838,-6.721444,0.009444,-7.445284,0.287659,0.160385,-0.03688,0.110894,-0.028216,-0.311026,0.66995,0.653681,-0.244054,-0.253584,-0.018416,-0.031677
368,341886249479998,-0.177094,9.986786,-0.088196,-6.70671,0.064692,-7.402093,0.264221,0.160385,-0.032623,0.093482,-0.024828,-0.295373,0.669584,0.654255,-0.243901,-0.25322,-0.018483,-0.031595
369,341886254271258,-0.208206,10.003555,0.067429,-6.736508,0.21007,-7.395559,0.245041,0.152939,-0.027298,0.084126,-0.020322,-0.27693,0.669263,0.654766,-0.243758,-0.252884,-0.018548,-0.031511
370,341886259337176,-0.195038,9.976013,-0.012192,-6.702946,0.120419,-7.390207,0.235458,0.138016,-0.021973,0.086879,-0.015708,-0.259185,0.668932,0.655279,-0.243636,-0.25255,-0.018611,-0.031427
371,341886264250506,-0.126205,9.969437,0.008759,-6.641878,0.133831,-7.434587,0.218414,0.135895,-0.015579,0.07556,-0.009925,-0.246185,0.668642,0.655741,-0.243523,-0.252225,-0.018655,-0.031358
372,341886269224871,-0.114838,9.950287,0.117096,-6.616437,0.233987,-7.429879,0.206696,0.131622,-0.010254,0.069656,-0.005106,-0.235106,0.668374,0.656178,-0.243415,-0.251904,-0.018698,-0.031289
373,341886274168719,-0.113037,9.934113,0.078796,-6.600037,0.187645,-7.423614,0.202438,0.115646,-0.009186,0.077046,-0.004523,-0.220188,0.668104,0.656596,-0.243335,-0.25161,-0.018739,-0.031218
374,341886279112566,-0.063354,9.938309,0.008759,-6.561156,0.11109,-7.464108,0.193909,0.101807,-0.002792,0.079751,0.001375,-0.203988,0.667841,0.656988,-0.243285,-0.251331,-0.018778,-0.031146
375,341886284056414,-0.028641,9.938904,0.002182,-6.531669,0.098158,-7.490684,0.184326,0.097534,0.001465,0.075385,0.005251,-0.194372,0.667595,0.657359,-0.243244,-0.251055,-0.018816,-0.031073
376,341886289000262,-0.092087,9.970627,-0.013382,-6.596892,0.075398,-7.476455,0.174744,0.092209,0.003601,0.071706,0.007024,-0.184011,0.667361,0.65771,-0.243207,-0.250793,-0.018851,-0.031
377,341886293944109,-0.04541,9.996964,0.079987,-6.576069,0.163599,-7.528376,0.16835,0.087952,0.007858,0.069714,0.010995,-0.176517,0.667142,0.658041,-0.243181,-0.250534,-0.018885,-0.030927
378,341886298857439,-0.00769,10.075378,0.135651,-6.595804,0.214565,-7.614525,0.165146,0.08902,0.007858,0.066669,0.010813,-0.175208,0.666933,0.658361,-0.243151,-0.250277,-0.018917,-0.030853
379,341886303801287,-0.020859,10.14122,0.182343,-6.645478,0.255431,-7.658337,0.169418,0.094345,0.005737,0.066515,0.008639,-0.182037,0.666719,0.658693,-0.24311,-0.250011,-0.018948,-0.030778
380,341886308745135,0.007874,10.181915,0.15181,-6.646513,0.219306,-7.711707,0.171539,0.096466,0.00679,0.066817,0.009576,-0.18499,0.666504,0.65903,-0.243071,-0.249738,-0.018977,-0.030703
381,341886313688982,0.024033,10.201675,0.115311,-6.643247,0.176641,-7.741069,0.174744,0.097534,0.003601,0.068653,0.00627,-0.187906,0.666281,0.659375,-0.243027,-0.249464,-0.019005,-0.030626
382,341886318602312,0.011459,10.204071,0.048874,-6.650364,0.103225,-7.738703,0.179001,0.095413,-0.000656,0.073373,0.001883,-0.189099,0.666045,0.659729,-0.242983,-0.2492,-0.019032,-0.030548
383,341886323546160,-0.040024,10.18251,0.041092,-6.671845,0.087954,-7.69191,0.176865,0.090088,-0.000656,0.075311,0.001669,-0.183638,0.665808,0.660078,-0.242944,-0.248947,-0.019058,-0.030469
384,341886328490008,-0.019073,10.19928,0.076996,-6.663683,0.117284,-7.720956,0.175812,0.08902,-0.004929,0.075311,-0.002778,-0.182152,0.665571,0.660426,-0.242899,-0.248702,-0.019083,-0.030389
385,341886333433855,0.003082,10.18013,0.075806,-6.630963,0.109227,-7.72393,0.179001,0.090088,-0.00705,0.077127,-0.005023,-0.185022,0.665329,0.660779,-0.242852,-0.248457,-0.019108,-0.030309
386,341886338255633,0.01265,10.162766,0.023727,-6.608997,0.050303,-7.72017,0.177933,0.083694,-0.008118,0.080561,-0.006276,-0.179447,0.665088,0.661121,-0.242815,-0.248228,-0.019133,-0.030227
387,341886343229998,-0.057968,10.197479,0.014755,-6.681955,0.033497,-7.703427,0.179001,0.083694,-0.010254,0.081458,-0.00856,-0.180118,0.664836,0.661478,-0.242771,-0.247999,-0.019158,-0.030145
388,341886348204363,-0.010086,10.187302,0.001587,-6.635557,0.013431,-7.729831,0.180069,0.086884,-0.011322,0.080278,-0.009773,-0.183199,0.664583,0.661837,-0.242722,-0.247763,-0.019183,-0.030061
389,341886353178728,-0.026855,10.155579,-0.100174,-6.623816,-0.09592,-7.698204,0.176865,0.085815,-0.015579,0.078641,-0.014214,-0.180282,0.664328,0.662198,-0.242667,-0.247537,-0.019208,-0.029977
390,341886358061541,-0.073532,10.084351,-0.142075,-6.60977,-0.145206,-7.616405,0.171539,0.079422,-0.013443,0.078808,-0.012263,-0.17191,0.664082,0.66254,-0.242622,-0.247327,-0.019234,-0.029892
391,341886363005389,-0.102264,10.052032,-0.152847,-6.607787,-0.162982,-7.575475,0.164093,0.073044,-0.013443,0.077355,-0.012443,-0.162185,0.66384,0.662871,-0.242581,-0.24713,-0.01926,-0.029807
392,341886367949236,-0.089096,10.0233,-0.140274,-6.576516,-0.156691,-7.56433,0.156631,0.070908,-0.011322,0.073114,-0.010488,-0.155672,0.663612,0.663185,-0.242543,-0.246937,-0.019286,-0.02972
393,341886372893084,-0.108246,10.021515,-0.162415,-6.587411,-0.18505,-7.552529,0.151306,0.063446,-0.00705,0.073933,-0.006347,-0.1465,0.663389,0.663485,-0.24252,-0.246753,-0.019299,-0.029649
394,341886377836932,-0.117828,10.014328,-0.22287,-6.58755,-0.251122,-7.542629,0.140656,0.057053,-0.002792,0.069997,-0.00223,-0.134694,0.66318,0.663762,-0.242509,-0.246578,-0.019313,-0.029576
395,341886382780779,-0.105865,9.986786,-0.267166,-6.558476,-0.300558,-7.530901,0.131058,0.049606,-0.002792,0.067558,-0.002341,-0.122781,0.662981,0.664021,-0.242505,-0.246421,-0.019326,-0.029501
396,341886387724627,-0.067551,9.971222,-0.237839,-6.517757,-0.275847,-7.545131,0.121475,0.043213,-0.002792,0.064438,-0.002434,-0.111683,0.662796,0.664258,-0.242506,-0.246278,-0.019339,-0.029422
397,341886392668475,-0.023849,9.999954,-0.189362,-6.501782,-0.231764,-7.596613,0.111893,0.043213,-0.00386,0.057174,-0.003603,-0.105453,0.662629,0.664477,-0.242501,-0.246142,-0.019351,-0.02934
398,341886397612322,-0.020859,9.986786,-0.147461,-6.489631,-0.193987,-7.589811,0.106567,0.042145,-0.002792,0.053827,-0.002606,-0.101175,0.662473,0.664684,-0.242496,-0.24601,-0.019363,-0.029254
399,341886402556170,-0.054382,10.04425,-0.138474,-6.550861,-0.189503,-7.613107,0.10231,0.042145,-0.004929,0.050619,-0.004808,-0.098399,0.662322,0.664885,-0.242483,-0.245885,-0.019374,-0.029165
400,341886407500018,-0.060364,10.094528,-0.141479,-6.586384,-0.196708,-7.648784,0.100174,0.042145,-0.000656,0.048989,-0.000592,-0.097011,0.662177,0.66508,-0.242475,-0.245755,-0.019385,-0.029072
401,341886412443865,-0.068741,10.084351,-0.115738,-6.584881,-0.174712,-7.636813,0.098038,0.037888,0.000397,0.050132,0.000432,-0.092378,0.662035,0.665267,-0.242474,-0.245632,-0.019395,-0.028976
402,341886417387713,-0.08252,10.078964,-0.113342,-6.590339,-0.176014,-7.625083,0.09697,0.042145,0.002533,0.046567,0.002494,-0.094927,0.661899,0.665454,-0.242469,-0.245501,-0.019405,-0.028878
403,341886422331561,-0.087906,10.098129,-0.167816,-6.605225,-0.234074,-7.637046,0.092712,0.034683,0.005737,0.048153,0.005692,-0.086488,0.661765,0.665629,-0.242478,-0.245378,-0.019416,-0.028777
404,341886427244891,-0.116638,10.071793,-0.116333,-6.609109,-0.185637,-7.599567,0.090591,0.033615,0.009995,0.047218,0.009913,-0.084313,0.661639,0.665794,-0.242493,-0.245254,-0.019427,-0.028673
405,341886432188738,-0.107056,10.068192,-0.075027,-6.598383,-0.147123,-7.604295,0.087387,0.035751,0.016388,0.043373,0.016246,-0.083893,0.661524,0.665951,-0.242513,-0.245118,-0.019439,-0.028564
406,341886437132586,-0.153137,10.0233,-0.016968,-6.603407,-0.091661,-7.541671,0.092712,0.036819,0.019577,0.046741,0.01939,-0.088169,0.661405,0.666113,-0.242537,-0.244974,-0.019451,-0.028454
407,341886442045916,-0.33989,10.04245,0.076996,-6.75714,-0.001484,-7.437291,0.098038,0.044281,0.027039,0.045948,0.02677,-0.097342,0.661294,0.666274,-0.242479,-0.244894,-0.019464,-0.028338
408,341886447020281,0.003082,10.184906,-0.14447,-6.584664,-0.226918,-7.768137,0.103363,0.049606,0.033432,0.04656,0.033054,-0.10489,0.661156,0.666472,-0.242539,-0.244669,-0.019477,-0.02822
409,341886451964129,0.077301,10.155579,-0.210907,-6.507049,-0.296456,-7.794655,0.10231,0.044281,0.024902,0.049276,0.024493,-0.100101,0.661003,0.666678,-0.242619,-0.244441,-0.019491,-0.028097
410,341886456877459,0.011459,10.14122,-0.228256,-6.546094,-0.317592,-7.74237,0.099106,0.04747,0.01532,0.044845,0.014818,-0.100397,0.660842,0.666895,-0.242658,-0.244245,-0.019506,-0.027971
411,341886461790789,-0.074738,10.153793,-0.231857,-6.61813,-0.325567,-7.697612,0.095917,0.048538,0.012115,0.041762,0.011545,-0.099123,0.660677,0.667117,-0.242665,-0.244079,-0.01952,-0.027841
412,341886466734637,-0.080719,10.134033,-0.217484,-6.607998,-0.31529,-7.680332,0.094849,0.052795,0.009995,0.038233,0.009328,-0.10166,0.660519,0.667337,-0.242657,-0.243914,-0.019535,-0.027709
413,341886471678484,-0.0466,10.08017,-0.284531,-6.544718,-0.386315,-7.662275,0.090591,0.054932,0.00679,0.033647,0.006047,-0.100507,0.660353,0.667568,-0.242652,-0.243736,-0.019538,-0.027593
414,341886476622332,-0.029251,10.047241,-0.333008,-6.507946,-0.438876,-7.649366,0.082062,0.052795,0.003601,0.028556,0.00284,-0.093332,0.660188,0.667795,-0.242649,-0.243563,-0.019543,-0.027475
415,341886481566180,-0.022659,10.04306,-0.327026,-6.498228,-0.436804,-7.651984,0.072479,0.052795,0.002533,0.021267,0.001748,-0.08713,0.660043,0.668003,-0.24264,-0.243396,-0.019547,-0.027354
416,341886486510027,-0.026245,9.977219,-0.245026,-6.456833,-0.357192,-7.601798,0.062881,0.053864,0.000397,0.013279,-0.000408,-0.081725,0.659935,0.668174,-0.24261,-0.243248,-0.019552,-0.027231
417,341886491423357,-0.060364,9.990387,-0.18277,-6.489639,-0.297619,-7.592168,0.057556,0.054932,0.001465,0.008538,0.000638,-0.079114,0.659853,0.668321,-0.242561,-0.243117,-0.019556,-0.027108
418,341886496397723,-0.037018,10.02211,-0.28093,-6.489439,-0.399084,-7.632231,0.052231,0.061325,0.003601,0.00036,0.002686,-0.080588,0.65976,0.668487,-0.242517,-0.242956,-0.019562,-0.026983
419,341886501311053,-0.100479,10.006546,-0.173203,-6.5261,-0.293357,-7.582552,0.049042,0.062378,0.001465,-0.002722,0.000527,-0.079313,0.659697,0.668623,-0.242439,-0.242831,-0.019567,-0.026856
420,341886506254900,-0.10347,10.057419,-0.179184,-6.558513,-0.302267,-7.621616,0.046906,0.069839,0.003601,-0.009146,0.002557,-0.083669,0.659641,0.668761,-0.24235,-0.242691,-0.019572,-0.026729
421,341886511198748,-0.133392,10.043655,-0.160034,-6.569992,-0.284956,-7.594229,0.043716,0.069839,0.00679,-0.011573,0.005738,-0.081657,0.659595,0.668889,-0.242254,-0.242558,-0.019577,-0.026601
422,341886516142596,-0.101669,10.08316,-0.220474,-6.568156,-0.348249,-7.646376,0.042648,0.071976,0.007858,-0.013742,0.006759,-0.082623,0.659541,0.669028,-0.242171,-0.242405,-0.019583,-0.02647
423,341886521086443,-0.114838,10.116684,-0.128906,-6.597454,-0.258739,-7.667043,0.04158,0.074097,0.007858,-0.015895,0.006719,-0.083566,0.659514,0.669142,-0.24207,-0.242263,-0.01959,-0.02634
424,341886525999773,-0.135788,10.093933,-0.100174,-6.595988,-0.231337,-7.639072,0.044785,0.08049,0.007858,-0.01752,0.006605,-0.090529,0.659493,0.669258,-0.241953,-0.242119,-0.019597,-0.026209
425,341886530913103,-0.141769,10.134628,-0.157028,-6.62328,-0.290748,-7.668303,0.047974,0.084747,0.012115,-0.017798,0.010766,-0.095904,0.659455,0.669394,-0.241842,-0.241955,-0.019604,-0.026077
426,341886535856951,-0.080719,10.152588,-0.244431,-6.584617,-0.38099,-7.722642,0.047974,0.079422,0.012115,-0.014338,0.010807,-0.091836,0.659398,0.669546,-0.241763,-0.241773,-0.019611,-0.025945
427,341886540800799,-0.040619,10.117874,-0.338394,-6.528369,-0.477074,-7.722709,0.04158,0.071976,0.012115,-0.014422,0.01091,-0.082032,0.659325,0.669703,-0.241712,-0.241585,-0.019619,-0.025813
428,341886545744646,-0.014877,10.072983,-0.352768,-6.477109,-0.49323,-7.706716,0.034119,0.068771,0.00679,-0.01803,0.005643,-0.074718,0.659259,0.669851,-0.24166,-0.241408,-0.019626,-0.025681
429,341886550535906,-0.02446,10.044846,-0.385681,-6.463739,-0.527869,-7.680469,0.02774,0.067703,0.007858,-0.022216,0.006739,-0.069828,0.659194,0.669993,-0.241611,-0.241239,-0.019633,-0.025549
430,341886555418719,-0.029251,10.059814,-0.397659,-6.474453,-0.54208,-7.690668,0.020279,0.06665,0.00679,-0.027236,0.00571,-0.064227,0.659137,0.670128,-0.241555,-0.241076,-0.01964,-0.025418
431,341886560484637,0.007874,10.047836,-0.353958,-6.435686,-0.499836,-7.708208,0.013885,0.071976,0.004669,-0.035523,0.003538,-0.064193,0.65911,0.670243,-0.241485,-0.240901,-0.019646,-0.025286
432,341886565520037,-0.020264,10.048447,-0.334213,-6.455156,-0.481158,-7.693021,0.00856,0.06665,0.003601,-0.03617,0.002571,-0.056689,0.65909,0.670343,-0.24141,-0.24075,-0.019653,-0.025156
433,341886570463885,-0.059769,10.034668,-0.362335,-6.474022,-0.510448,-7.658724,0.006424,0.065582,0.001465,-0.037097,0.000453,-0.05448,0.659061,0.670451,-0.241325,-0.240618,-0.019655,-0.025061
434,341886575407732,-0.028046,9.998764,-0.32164,-6.424418,-0.470468,-7.654084,0.001099,0.063446,-0.001724,-0.039786,-0.002677,-0.049391,0.659052,0.670535,-0.24124,-0.240492,-0.019658,-0.024967
435,341886580351580,-0.056183,9.986191,-0.289322,-6.435636,-0.438684,-7.628964,-0.00209,0.065582,-0.001724,-0.043587,-0.002694,-0.049002,0.659055,0.67061,-0.241139,-0.240377,-0.019661,-0.024873
436,341886585295428,-0.092697,10.031082,-0.267166,-6.489945,-0.417871,-7.642552,-0.003159,0.067703,-0.002792,-0.045745,-0.003792,-0.049945,0.659064,0.670681,-0.24102,-0.240273,-0.019665,-0.02478
437,341886590239275,-0.032837,10.080765,-0.256989,-6.473258,-0.409464,-7.721277,-0.00209,0.065582,-0.004929,-0.04354,-0.005908,-0.04898,0.659078,0.670745,-0.240916,-0.240159,-0.019668,-0.024688
438,341886595183123,-0.038818,10.138824,-0.233643,-6.512733,-0.387501,-7.764416,-0.00209,0.061325,-0.005981,-0.040798,-0.006899,-0.045704,0.659096,0.670801,-0.240814,-0.240058,-0.019671,-0.024595
439,341886600096453,-0.044205,10.159775,-0.249207,-6.527872,-0.403949,-7.778729,-0.00209,0.060257,-0.004929,-0.040106,-0.005834,-0.044911,0.659108,0.670859,-0.240716,-0.239958,-0.019674,-0.024503
440,341886605040301,0.007263,10.18013,-0.267761,-6.499077,-0.423557,-7.828748,-0.004227,0.054932,-0.004929,-0.038334,-0.005741,-0.039462,0.659121,0.670912,-0.24064,-0.239851,-0.019677,-0.02441
441,341886609984148,-0.011887,10.189102,-0.295898,-6.517351,-0.452246,-7.824645,-0.008484,0.052795,-0.00705,-0.040224,-0.007802,-0.035074,0.65913,0.670966,-0.24056,-0.239756,-0.01968,-0.024317
442,341886614927996,-0.011887,10.17952,-0.256393,-6.509465,-0.412864,-7.819511,-0.01062,0.049606,-0.008118,-0.039817,-0.008808,-0.031249,0.65915,0.671005,-0.240477,-0.239674,-0.019683,-0.024224
443,341886619871844,0.029419,10.202866,-0.215088,-6.49089,-0.371966,-7.866108,-0.011688,0.048538,-0.009186,-0.039944,-0.009851,-0.029738,0.659187,0.671027,-0.240402,-0.239588,-0.019686,-0.024131
444,341886624785174,0.048569,10.206467,-0.186371,-6.476601,-0.342831,-7.883225,-0.013809,0.050659,-0.009186,-0.042924,-0.009866,-0.030027,0.659238,0.671037,-0.240324,-0.239498,-0.019689,-0.024037
445,341886629729021,0.055756,10.204666,-0.211502,-6.467939,-0.36765,-7.887565,-0.011688,0.04747,-0.011322,-0.039239,-0.011966,-0.028901,0.659276,0.671056,-0.240253,-0.239411,-0.019692,-0.023944
446,341886634672869,0.050369,10.190903,-0.212708,-6.461631,-0.368446,-7.874891,-0.011688,0.042145,-0.015579,-0.035817,-0.016141,-0.024742,0.659308,0.671075,-0.240182,-0.239341,-0.019696,-0.023851
447,341886639586199,0.020432,10.150192,-0.258194,-6.456734,-0.413629,-7.825158,-0.007416,0.045334,-0.016647,-0.034549,-0.017288,-0.029912,0.659317,0.67112,-0.240104,-0.239269,-0.0197,-0.023758
448,341886644530047,-0.002304,10.147797,-0.28273,-6.470888,-0.438811,-7.8098,-0.006348,0.043213,-0.0177,-0.032362,-0.018319,-0.028949,0.659315,0.671174,-0.240024,-0.239204,-0.019704,-0.023664
449,341886649534930,-0.016083,10.175339,-0.30249,-6.497309,-0.459865,-7.823223,-0.009552,0.041077,-0.018768,-0.033457,-0.019337,-0.025249,0.659309,0.671229,-0.23994,-0.239149,-0.019709,-0.023571
450,341886654417742,-0.053192,10.140015,-0.324631,-6.501611,-0.482512,-7.773306,-0.01062,0.042145,-0.020905,-0.034943,-0.021488,-0.025362,0.659294,0.671293,-0.239846,-0.239104,-0.019714,-0.023479
451,341886659209002,-0.04361,10.080765,-0.365936,-6.454587,-0.524417,-7.734397,-0.012741,0.043213,-0.021973,-0.037246,-0.022565,-0.024821,0.659272,0.671365,-0.239755,-0.239054,-0.01972,-0.023386
452,341886664274920,-0.062759,10.065796,-0.330017,-6.458347,-0.489255,-7.712554,-0.018066,0.040009,-0.020905,-0.039307,-0.021416,-0.018984,0.659267,0.671419,-0.239654,-0.239018,-0.019725,-0.023295
453,341886669218768,-0.099274,10.0233,-0.332413,-6.457777,-0.491993,-7.657809,-0.020203,0.041077,-0.021973,-0.041622,-0.022494,-0.018436,0.659261,0.671474,-0.239541,-0.238994,-0.019731,-0.023205
454,341886674193133,-0.113632,10.016113,-0.327026,-6.462644,-0.487489,-7.644522,-0.023392,0.041077,-0.019836,-0.044086,-0.020343,-0.01645,0.659261,0.671522,-0.239425,-0.238972,-0.019737,-0.023115
455,341886679106463,-0.123215,10.032288,-0.297089,-6.478797,-0.458552,-7.652774,-0.027664,0.043213,-0.019836,-0.048733,-0.020357,-0.015388,0.659277,0.671557,-0.2393,-0.238955,-0.019742,-0.023053
456,341886684050311,-0.08252,10.062805,-0.233643,-6.465356,-0.396106,-7.70478,-0.026596,0.046402,-0.020905,-0.049927,-0.021489,-0.018522,0.659315,0.671575,-0.239173,-0.238928,-0.019746,-0.022992
457,341886688994158,-0.107651,10.102905,-0.212097,-6.50849,-0.375383,-7.721641,-0.022339,0.048538,-0.018768,-0.048006,-0.019418,-0.022926,0.659351,0.671596,-0.239041,-0.238901,-0.019751,-0.02293
458,341886693938006,-0.063354,10.135239,-0.195938,-6.492981,-0.36011,-7.776693,-0.020203,0.050659,-0.019836,-0.047692,-0.020536,-0.025917,0.659394,0.671614,-0.238915,-0.238859,-0.019755,-0.022869
459,341886698851336,-0.012482,10.181915,-0.190552,-6.481329,-0.355895,-7.846887,-0.013809,0.053864,-0.023026,-0.044767,-0.023817,-0.032417,0.659433,0.671639,-0.238797,-0.2388,-0.019758,-0.022808
460,341886703795184,0.011459,10.181915,-0.215698,-6.460472,-0.381734,-7.863506,-0.006348,0.056,-0.02623,-0.040334,-0.027102,-0.038767,0.659454,0.671685,-0.238682,-0.238728,-0.019761,-0.022745
461,341886708739031,0.029419,10.17952,-0.228256,-6.442824,-0.395086,-7.874632,-0.004227,0.054932,-0.030487,-0.03798,-0.031358,-0.039231,0.659468,0.671737,-0.23857,-0.238657,-0.019764,-0.022683
462,341886713682879,0.059341,10.176529,-0.258789,-6.415622,-0.426661,-7.892396,-0.003159,0.049606,-0.034744,-0.033735,-0.035537,-0.035734,0.659468,0.671795,-0.238471,-0.238589,-0.019767,-0.022619
463,341886718626727,0.010864,10.180725,-0.235443,-6.453906,-0.404376,-7.866784,3.1e-05,0.048538,-0.037949,-0.030559,-0.038749,-0.036888,0.659463,0.671858,-0.238355,-0.238542,-0.01977,-0.022555
464,341886723540057,0.003082,10.204666,-0.245026,-6.473096,-0.41558,-7.881718,-0.001022,0.048538,-0.03688,-0.031366,-0.03768,-0.036243,0.659457,0.671921,-0.23824,-0.238495,-0.019773,-0.02249
465,341886728483904,0.017441,10.169952,-0.247421,-6.437986,-0.418802,-7.865519,3.1e-05,0.048538,-0.039017,-0.030525,-0.039829,-0.036881,0.659449,0.671987,-0.238126,-0.238446,-0.019777,-0.022426
466,341886733427752,-0.017868,10.167557,-0.279144,-6.461567,-0.452085,-7.842265,3.1e-05,0.048538,-0.042206,-0.030488,-0.043026,-0.036831,0.659427,0.672066,-0.238,-0.238409,-0.019781,-0.022359
467,341886738249529,-0.022659,10.144806,-0.269562,-6.449141,-0.443629,-7.823166,-0.003159,0.044281,-0.04007,-0.030255,-0.040807,-0.031557,0.659411,0.672133,-0.237885,-0.238379,-0.019786,-0.022293
468,341886743162859,-0.054382,10.136429,-0.294708,-6.46646,-0.470239,-7.797469,-0.005295,0.042145,-0.04007,-0.030538,-0.040766,-0.028555,0.659388,0.672205,-0.237763,-0.23836,-0.019791,-0.022226
469,341886748320330,-0.047195,10.095734,-0.353958,-6.432967,-0.5309,-7.77087,-0.007416,0.040009,-0.04007,-0.030811,-0.040727,-0.02556,0.659353,0.67229,-0.237645,-0.238337,-0.019798,-0.022157
470,341886753294695,-0.002914,10.053833,-0.304871,-6.370829,-0.482678,-7.76866,-0.01062,0.041077,-0.04007,-0.033955,-0.040735,-0.02436,0.659341,0.672351,-0.237536,-0.238307,-0.019806,-0.022088
471,341886758177508,-0.011292,10.050842,-0.340195,-6.373728,-0.519423,-7.761514,-0.014877,0.034683,-0.042206,-0.033172,-0.042742,-0.016684,0.65932,0.672413,-0.237435,-0.238291,-0.019815,-0.022018
472,341886763060320,0.004868,10.068787,-0.30069,-6.371616,-0.481417,-7.787272,-0.019135,0.030426,-0.04541,-0.033737,-0.045853,-0.010643,0.659315,0.672454,-0.237334,-0.238289,-0.019826,-0.021947
473,341886767973650,0.008469,10.101715,-0.232452,-6.388889,-0.4144,-7.817227,-0.021271,0.031494,-0.047531,-0.036041,-0.047987,-0.010089,0.659333,0.672474,-0.237221,-0.238295,-0.019838,-0.021875
474,341886772886980,-0.028641,10.073578,-0.197144,-6.398646,-0.379145,-7.773695,-0.021271,0.034683,-0.051788,-0.038014,-0.052308,-0.012494,0.659356,0.672493,-0.237083,-0.238317,-0.019851,-0.021804
475,341886777830828,-0.000519,10.075974,-0.22348,-6.376704,-0.40649,-7.794082,-0.022339,0.035751,-0.056061,-0.039469,-0.056603,-0.012583,0.659374,0.672518,-0.236945,-0.238334,-0.019865,-0.021733
476,341886782774676,-0.022659,10.068192,-0.258194,-6.387249,-0.44217,-7.77451,-0.022339,0.032562,-0.058182,-0.037418,-0.058674,-0.010088,0.659377,0.672553,-0.236807,-0.238361,-0.019879,-0.021663
477,341886787718523,-0.050186,10.041855,-0.245026,-6.390751,-0.429688,-7.737901,-0.02446,0.029358,-0.060318,-0.036997,-0.060751,-0.006238,0.659382,0.672584,-0.236662,-0.238406,-0.019893,-0.021593
478,341886792662371,-0.017868,10.038864,-0.226471,-6.362861,-0.412113,-7.757215,-0.026596,0.026169,-0.061386,-0.036609,-0.061761,-0.00241,0.659396,0.672601,-0.236526,-0.238452,-0.019898,-0.021543
479,341886797606219,0.034805,10.080765,-0.253403,-6.347104,-0.440787,-7.823492,-0.028732,0.02829,-0.063507,-0.039572,-0.063921,-0.002676,0.659412,0.67262,-0.236399,-0.23848,-0.019903,-0.021494
480,341886802519549,0.043777,10.099319,-0.277344,-6.350535,-0.465916,-7.844015,-0.031921,0.026169,-0.065643,-0.040668,-0.066014,0.00101,0.659425,0.672639,-0.236277,-0.238512,-0.019907,-0.021444
481,341886807463396,-0.0047,10.096924,-0.248016,-6.385963,-0.437226,-7.812662,-0.036179,0.018707,-0.068832,-0.0392,-0.069061,0.009523,0.659442,0.672646,-0.236143,-0.238579,-0.019911,-0.021395
482,341886812407244,-0.022064,10.093933,-0.227661,-6.397143,-0.417496,-7.800139,-0.039383,0.011246,-0.070969,-0.036924,-0.071061,0.01735,0.659463,0.67264,-0.23601,-0.238671,-0.019914,-0.021345
483,341886817351092,-0.075333,10.12146,-0.227066,-6.455227,-0.418196,-7.788203,-0.040436,0.011246,-0.069901,-0.037729,-0.070005,0.017986,0.65948,0.672636,-0.235865,-0.238775,-0.019917,-0.021293
484,341886822294939,-0.011292,10.087341,-0.227066,-6.38359,-0.418348,-7.802609,-0.039383,0.008057,-0.070969,-0.034867,-0.071027,0.019796,0.6595,0.672627,-0.235742,-0.238867,-0.019919,-0.02124
485,341886827238787,-0.115433,10.169952,-0.200134,-6.516445,-0.393946,-7.801415,-0.039383,0.004868,-0.074158,-0.032791,-0.074171,0.022305,0.659513,0.672621,-0.23559,-0.239,-0.01992,-0.021186
486,341886832152117,-0.10347,10.208847,-0.199539,-6.531321,-0.395144,-7.839442,-0.040436,0.008057,-0.074158,-0.035597,-0.074246,0.020486,0.659531,0.672613,-0.235437,-0.239124,-0.019922,-0.02113
487,341886837095965,0.036591,10.170547,-0.203125,-6.398101,-0.398262,-7.898623,-0.04364,0.008057,-0.073105,-0.038075,-0.073202,0.022481,0.659568,0.672587,-0.235322,-0.239207,-0.019923,-0.021072
488,341886842039812,-0.04361,10.161575,-0.171402,-6.454727,-0.366912,-7.841613,-0.040436,0.001663,-0.077362,-0.031478,-0.077354,0.02546,0.659594,0.672565,-0.235188,-0.239331,-0.019925,-0.021014
489,341886846983660,-0.096878,10.160965,-0.170197,-6.495465,-0.366764,-7.807566,-0.037247,0.000595,-0.080551,-0.028265,-0.080539,0.024306,0.659607,0.672553,-0.23504,-0.239474,-0.019926,-0.020956
490,341886851866473,-0.166306,10.130447,-0.153442,-6.529995,-0.35086,-7.740356,-0.036179,0.000595,-0.081619,-0.02739,-0.081623,0.023632,0.659614,0.672546,-0.234873,-0.239636,-0.019927,-0.020898
491,341886856779803,-0.249512,10.112488,-0.194748,-6.582566,-0.393918,-7.673145,-0.03511,-0.003662,-0.076294,-0.0239,-0.07623,0.026165,0.6596,0.672555,-0.234704,-0.239815,-0.019928,-0.02084
492,341886861723650,-0.306366,10.116074,-0.183365,-6.629094,-0.384685,-7.639992,-0.036179,-0.005798,-0.068832,-0.023441,-0.068744,0.028375,0.659589,0.672558,-0.234535,-0.240002,-0.019928,-0.020783
493,341886866698016,-0.320145,10.116684,-0.219879,-6.63964,-0.423102,-7.631123,-0.038315,-0.003662,-0.057114,-0.026578,-0.057088,0.027892,0.659578,0.672563,-0.23438,-0.240168,-0.019928,-0.020727
494,341886871641863,-0.394958,10.097519,-0.188156,-6.686057,-0.392932,-7.569246,-0.039383,-0.006851,-0.048599,-0.025485,-0.048529,0.030907,0.659573,0.672559,-0.234223,-0.240348,-0.019928,-0.020672
495,341886876585711,-0.40274,10.104706,-0.189957,-6.696787,-0.396292,-7.569629,-0.041504,-0.007919,-0.037949,-0.026589,-0.03788,0.032917,0.659576,0.672545,-0.234084,-0.240514,-0.019927,-0.020616
496,341886881529559,-0.391968,10.071793,-0.216293,-6.667568,-0.422906,-7.550255,-0.04364,-0.011124,-0.024094,-0.026412,-0.023982,0.036551,0.659583,0.672525,-0.233978,-0.240657,-0.019927,-0.020559
497,341886886473406,-0.412918,10.047836,-0.200729,-6.669403,-0.407434,-7.518164,-0.046829,-0.016449,-0.013443,-0.025669,-0.013248,0.042542,0.659599,0.672488,-0.233889,-0.2408,-0.019928,-0.020502
498,341886891417254,-0.401535,10.025101,-0.218689,-6.646571,-0.424954,-7.506947,-0.048965,-0.01857,-0.000656,-0.026174,-0.000441,0.04536,0.659622,0.672443,-0.23383,-0.240921,-0.019929,-0.020444
499,341886896361102,-0.356644,10.023895,-0.270767,-6.611126,-0.476446,-7.53292,-0.053223,-0.024963,0.011063,-0.025607,0.011381,0.052849,0.659644,0.672391,-0.233816,-0.241018,-0.01993,-0.020385
500,341886901274432,-0.333313,10.04306,-0.216888,-6.607105,-0.421607,-7.562382,-0.056427,-0.029236,0.020645,-0.025528,0.021024,0.058063,0.659692,0.67231,-0.233824,-0.241106,-0.019932,-0.020325
501,341886906218279,-0.289612,10.043655,-0.218094,-6.574889,-0.420732,-7.589466,-0.060684,-0.033493,0.028107,-0.026238,0.028541,0.063963,0.659752,0.672211,-0.233861,-0.241179,-0.019934,-0.020265
502,341886911162127,-0.4189,9.992172,-0.20253,-6.644133,-0.40286,-7.46681,-0.06601,-0.038818,0.038757,-0.027147,0.039256,0.071332,0.659815,0.672104,-0.233885,-0.241285,-0.019937,-0.020204
503,341886916105975,-0.377594,9.96106,-0.283325,-6.593105,-0.480884,-7.466284,-0.070267,-0.050537,0.04834,-0.023153,0.049036,0.082992,0.659865,0.671996,-0.23396,-0.241377,-0.019939,-0.020142
504,341886921049822,-0.312958,9.931122,-0.214493,-6.527378,-0.407939,-7.483189,-0.077728,-0.056931,0.05687,-0.02498,0.057635,0.092581,0.659953,0.671843,-0.234066,-0.241459,-0.019941,-0.020079
505,341886925993670,-0.212997,9.967636,-0.219879,-6.475535,-0.409397,-7.57281,-0.084122,-0.063324,0.063248,-0.02593,0.064081,0.101528,0.66006,0.671665,-0.234217,-0.241516,-0.019943,-0.020016
506,341886930907000,-0.262085,10.006546,-0.211502,-6.541241,-0.397663,-7.569565,-0.090515,-0.077164,0.066452,-0.022097,0.067482,0.116279,0.660166,0.671471,-0.234376,-0.241609,-0.019944,-0.019952
507,341886935850848,-0.184265,10.077179,-0.167816,-6.529888,-0.349401,-7.671386,-0.09903,-0.086746,0.072845,-0.022626,0.073966,0.129056,0.660305,0.671234,-0.234575,-0.241696,-0.019945,-0.019887
508,341886940825213,-0.142975,10.13942,-0.093582,-6.542049,-0.269824,-7.743754,-0.100098,-0.088882,0.071777,-0.021997,0.072872,0.131443,0.660467,0.67097,-0.23478,-0.241786,-0.019946,-0.019824
509,341886945646990,-0.213593,10.150192,-0.018768,-6.607916,-0.18933,-7.705315,-0.09903,-0.088882,0.073914,-0.021124,0.074948,0.130793,0.660636,0.670702,-0.234956,-0.241897,-0.019946,-0.01976
510,341886950468768,-0.28363,10.126846,0.036896,-6.651387,-0.127415,-7.64054,-0.096909,-0.089951,0.080292,-0.018817,0.081283,0.130263,0.660811,0.670427,-0.235121,-0.242024,-0.019946,-0.019697
511,341886955534686,-0.278244,10.113083,0.15181,-6.643528,-0.005158,-7.631407,-0.090515,-0.087814,0.084564,-0.015212,0.085472,0.124573,0.661016,0.670117,-0.235295,-0.242151,-0.019945,-0.019635
512,341886960509051,-0.190857,10.090347,0.145233,-6.564729,-0.003973,-7.666619,-0.078796,-0.082489,0.087753,-0.009511,0.088572,0.113041,0.661209,0.669829,-0.235492,-0.242231,-0.019945,-0.019573
513,341886965483416,-0.087906,10.088547,0.081192,-6.486629,-0.060679,-7.727423,-0.070267,-0.085693,0.088821,-0.000816,0.089676,0.110125,0.661377,0.669562,-0.235734,-0.242274,-0.019944,-0.019512
514,341886970427264,-0.023849,10.137024,0.056641,-6.47113,-0.078748,-7.802649,-0.068146,-0.086746,0.088821,0.001584,0.089651,0.109627,0.661539,0.669301,-0.235996,-0.242298,-0.019943,-0.019454
515,341886975371111,0.077301,10.170547,-0.012192,-6.417289,-0.140808,-7.889522,-0.067078,-0.092072,0.084564,0.00595,0.085424,0.113115,0.661683,0.669051,-0.236294,-0.242303,-0.019943,-0.019395
516,341886980314959,0.177856,10.259735,-0.054077,-6.400053,-0.176696,-8.019018,-0.064941,-0.098465,0.078171,0.011848,0.079076,0.116747,0.661813,0.668809,-0.236623,-0.242295,-0.019943,-0.019337
517,341886985258807,0.164093,10.246567,-0.056473,-6.406506,-0.172719,-7.996824,-0.06601,-0.105927,0.068573,0.015987,0.069514,0.123257,0.661932,0.668569,-0.236943,-0.242322,-0.019943,-0.01928
518,341886990202654,0.068314,10.18132,-0.016968,-6.443249,-0.127119,-7.882422,-0.067078,-0.105927,0.060059,0.015344,0.060944,0.124006,0.662046,0.668332,-0.237218,-0.242394,-0.019944,-0.019224
519,341886995146502,0.061142,10.14241,-0.003799,-6.428211,-0.107914,-7.844654,-0.067078,-0.105927,0.05899,0.015444,0.059822,0.124026,0.66216,0.668095,-0.237486,-0.242473,-0.019945,-0.019168
520,341887000059832,0.073105,10.090942,0.028519,-6.39046,-0.069296,-7.809637,-0.067078,-0.10379,0.055801,0.014196,0.056557,0.122415,0.662282,0.667853,-0.237744,-0.242554,-0.019947,-0.019113
521,341887004973162,0.080887,10.046051,0.173965,-6.360703,0.083115,-7.777824,-0.068146,-0.094208,0.051529,0.007366,0.052126,0.115771,0.662447,0.667579,-0.237966,-0.242641,-0.01995,-0.019058
522,341887009917010,0.19043,10.143616,0.194916,-6.341971,0.110399,-7.920495,-0.059616,-0.077164,0.046204,0.003136,0.046629,0.097258,0.662621,0.667315,-0.238185,-0.242675,-0.019953,-0.019002
523,341887014860857,0.174271,10.175339,0.11232,-6.376997,0.032993,-7.931788,-0.053223,-0.077164,0.034485,0.008195,0.034895,0.093228,0.662752,0.667095,-0.238391,-0.242721,-0.019956,-0.018945
524,341887019804705,0.092255,10.198685,0.099152,-6.457828,0.022276,-7.894767,-0.047897,-0.076096,0.024902,0.011717,0.025299,0.089036,0.662809,0.666948,-0.238533,-0.242829,-0.01996,-0.018888
525,341887024748553,0.029419,10.149597,0.093155,-6.47746,0.018963,-7.81447,-0.04364,-0.072906,0.020645,0.013012,0.021013,0.083875,0.662857,0.666814,-0.238663,-0.242939,-0.019964,-0.018829
526,341887029692400,-0.059769,10.131042,0.0746,-6.536852,0.00248,-7.740585,-0.040436,-0.076096,0.018509,0.017565,0.018893,0.084278,0.662895,0.666686,-0.238793,-0.243059,-0.019969,-0.018769
527,341887034605730,-0.063354,10.088547,0.017746,-6.514768,-0.051998,-7.703131,-0.039383,-0.073975,0.017441,0.017054,0.017796,0.081975,0.662928,0.666566,-0.238919,-0.243175,-0.019973,-0.018709
528,341887039549578,-0.133392,10.08316,-0.009186,-6.567558,-0.077098,-7.651761,-0.041504,-0.07077,0.016388,0.013409,0.016695,0.080877,0.662965,0.666446,-0.239034,-0.243292,-0.019978,-0.018647
529,341887044462908,-0.167511,10.084351,0.000381,-6.597231,-0.065648,-7.628533,-0.041504,-0.07077,0.016388,0.013439,0.016678,0.080875,0.663,0.666327,-0.239147,-0.24341,-0.019983,-0.018584
530,341887049376238,-0.154343,10.093933,-0.022354,-6.595772,-0.086623,-7.641994,-0.042572,-0.07077,0.018509,0.012633,0.018777,0.081555,0.663031,0.666212,-0.239245,-0.243543,-0.019987,-0.01852
531,341887054167498,-0.153137,10.136429,-0.019974,-6.624637,-0.082834,-7.673228,-0.042572,-0.067581,0.017441,0.01062,0.017672,0.079112,0.663062,0.666103,-0.239334,-0.24367,-0.019991,-0.018456
532,341887059386004,-0.135193,10.129242,-0.008591,-6.60901,-0.069267,-7.676976,-0.04364,-0.066513,0.017441,0.009144,0.017642,0.078979,0.663103,0.665978,-0.239433,-0.243801,-0.019993,-0.018391
533,341887064299334,-0.129807,10.120865,-0.000809,-6.602082,-0.059573,-7.671872,-0.039383,-0.066513,0.017441,0.012432,0.017645,0.076245,0.663137,0.665865,-0.23953,-0.243922,-0.019994,-0.018326
534,341887069182146,-0.093292,10.130447,0.021332,-6.58288,-0.035191,-7.700611,-0.039383,-0.065445,0.017441,0.011771,0.017621,0.075427,0.66318,0.665745,-0.239631,-0.244033,-0.019994,-0.018259
535,341887074125994,-0.080124,10.135239,0.056641,-6.578523,0.002643,-7.710756,-0.041504,-0.062256,0.016388,0.008129,0.016521,0.07435,0.663239,0.665612,-0.239727,-0.244143,-0.019991,-0.018203
536,341887079069842,-0.105255,10.141815,0.060242,-6.604309,0.00837,-7.697666,-0.039383,-0.06012,0.016388,0.008402,0.016501,0.071352,0.663293,0.665486,-0.239812,-0.244255,-0.019987,-0.018145
537,341887083983172,-0.110641,10.114288,0.09137,-6.593064,0.041948,-7.671323,-0.037247,-0.055862,0.016388,0.007317,0.016472,0.06672,0.663354,0.665359,-0.239887,-0.244363,-0.019982,-0.018085
538,341887088927019,-0.099274,10.116684,0.081192,-6.588022,0.034143,-7.678575,-0.038315,-0.056931,0.01532,0.007215,0.015386,0.068228,0.663412,0.665232,-0.239967,-0.244472,-0.019975,-0.018023
539,341887093870867,-0.110046,10.107697,0.059647,-6.592413,0.014506,-7.662958,-0.036179,-0.054794,0.012115,0.007515,0.012167,0.065219,0.663458,0.66512,-0.240038,-0.244581,-0.019968,-0.01796
540,341887098784197,-0.107056,10.080765,0.084183,-6.575019,0.041193,-7.642494,-0.036179,-0.054794,0.011063,0.00754,0.011099,0.06522,0.66351,0.665003,-0.240105,-0.244693,-0.019961,-0.017897
541,341887103758562,-0.116028,10.086746,0.069214,-6.587734,0.028078,-7.639483,-0.036179,-0.054794,0.012115,0.007551,0.012135,0.065221,0.663558,0.664889,-0.240174,-0.244806,-0.019953,-0.017834
542,341887108702410,-0.111847,10.104111,0.062637,-6.597657,0.023336,-7.653758,-0.037247,-0.051605,0.011063,0.004703,0.01105,0.063471,0.663606,0.664779,-0.240238,-0.244913,-0.019945,-0.01777
543,341887113646258,-0.101074,10.117874,0.075195,-6.600282,0.037975,-7.669552,-0.037247,-0.050537,0.013184,0.004017,0.013152,0.062658,0.663659,0.664665,-0.240304,-0.245012,-0.019937,-0.017706
544,341887118590105,-0.094482,10.117279,0.069809,-6.596792,0.034752,-7.671651,-0.039383,-0.051605,0.012115,0.003097,0.012059,0.064853,0.663714,0.664548,-0.240372,-0.245114,-0.019929,-0.017642
545,341887123503436,-0.136383,10.113678,0.076401,-6.628407,0.043127,-7.640228,-0.04364,-0.049469,0.011063,-0.001511,0.010957,0.065967,0.663772,0.66443,-0.24042,-0.245228,-0.019922,-0.017577
546,341887128447283,-0.10347,10.125656,0.072205,-6.612685,0.041188,-7.669126,-0.042572,-0.045212,0.009995,-0.00342,0.009866,0.062027,0.663833,0.664315,-0.24047,-0.245327,-0.019916,-0.017512
547,341887133360613,-0.116638,10.128052,0.094955,-6.626032,0.065917,-7.661035,-0.040436,-0.042007,0.011063,-0.003851,0.010922,0.058206,0.663896,0.664202,-0.240511,-0.245423,-0.01991,-0.017445
548,341887138304461,-0.107651,10.138824,0.11171,-6.62776,0.084923,-7.673676,-0.040436,-0.039886,0.009995,-0.005201,0.009833,0.056587,0.663965,0.664084,-0.240549,-0.245517,-0.019903,-0.017378
549,341887143126238,-0.106461,10.152588,0.1147,-6.637161,0.090064,-7.683702,-0.040436,-0.03775,0.009995,-0.00657,0.009813,0.05496,0.664034,0.66397,-0.240582,-0.245605,-0.019897,-0.017309
550,341887148161639,-0.079529,10.144211,0.11351,-6.612574,0.091445,-7.693472,-0.040436,-0.035614,0.009995,-0.007939,0.009793,0.053333,0.664108,0.663852,-0.240622,-0.245685,-0.01989,-0.01724
551,341887153136004,-0.099869,10.149002,0.115906,-6.632636,0.095799,-7.682751,-0.038315,-0.036682,0.008926,-0.005613,0.008728,0.052779,0.664175,0.663741,-0.240657,-0.245772,-0.019883,-0.017169
552,341887157988299,-0.142365,10.131042,0.071014,-6.654394,0.052207,-7.640656,-0.038315,-0.032425,0.009995,-0.008362,0.009777,0.049536,0.664226,0.663651,-0.240678,-0.245856,-0.019876,-0.017097
553,341887162993182,-0.111847,10.132843,0.05365,-6.633314,0.03669,-7.660804,-0.039383,-0.030289,0.007858,-0.010535,0.007619,0.048592,0.664279,0.663562,-0.240703,-0.245931,-0.019869,-0.017023
554,341887167967547,-0.159134,10.12027,0.048874,-6.662235,0.033008,-7.61978,-0.042572,-0.026031,0.00679,-0.015708,0.00651,0.047402,0.664331,0.663477,-0.240705,-0.246015,-0.019861,-0.016948
555,341887172911394,-0.173492,10.151993,0.022537,-6.694548,0.007709,-7.633903,-0.042572,-0.0271,0.008926,-0.015025,0.008637,0.04823,0.664374,0.663401,-0.240711,-0.246098,-0.019855,-0.016885
556,341887177855242,-0.150146,10.13942,0.035706,-6.669662,0.0225,-7.638515,-0.042572,-0.024963,0.009995,-0.016407,0.009693,0.046608,0.664425,0.66332,-0.240721,-0.246171,-0.019847,-0.01682
557,341887182799090,-0.159729,10.119064,0.027313,-6.664533,0.015439,-7.616143,-0.044708,-0.020706,0.008926,-0.020778,0.008593,0.04474,0.664478,0.663242,-0.240719,-0.24624,-0.019839,-0.016754
558,341887187712420,-0.169907,10.12027,0.008163,-6.673639,-0.002581,-7.60995,-0.045776,-0.01857,0.008926,-0.02297,0.008573,0.043805,0.664526,0.663171,-0.240712,-0.246307,-0.019831,-0.016687
559,341887192656268,-0.174088,10.123856,0.030304,-6.679973,0.020861,-7.609298,-0.046829,-0.017517,0.008926,-0.02445,0.008553,0.043686,0.664582,0.663094,-0.2407,-0.246377,-0.019823,-0.016619
560,341887197600115,-0.175293,10.084351,0.030304,-6.65584,0.0222,-7.577935,-0.047897,-0.013245,0.00679,-0.028011,0.006394,0.041112,0.66464,0.663019,-0.240677,-0.246443,-0.019814,-0.016552
561,341887202543963,-0.144165,10.099915,0.050064,-6.642672,0.043967,-7.609492,-0.048965,-0.010056,0.009995,-0.030908,0.009578,0.03939,0.664712,0.662934,-0.240659,-0.246493,-0.019805,-0.016485
562,341887207487811,-0.147156,10.103516,0.066818,-6.647752,0.062424,-7.609901,-0.045776,-0.008987,0.011063,-0.029173,0.010664,0.036522,0.664784,0.662851,-0.240642,-0.24654,-0.019796,-0.016418
563,341887212401141,-0.154343,10.137619,0.087769,-6.675759,0.084894,-7.630856,-0.04364,-0.007919,0.007858,-0.028212,0.007468,0.034311,0.664854,0.662771,-0.240616,-0.246593,-0.019787,-0.016351
564,341887217344988,-0.095688,10.123856,0.114105,-6.62249,0.113763,-7.657964,-0.041504,-0.00473,0.00679,-0.028637,0.006412,0.030494,0.664936,0.662683,-0.240597,-0.246627,-0.019778,-0.016283
565,341887222288836,-0.077133,10.127457,0.078201,-6.610551,0.079707,-7.672786,-0.037247,-0.003662,0.005737,-0.026074,0.005393,0.026921,0.665002,0.662612,-0.240586,-0.246649,-0.019769,-0.016215
566,341887227232684,-0.101074,10.110687,0.064423,-6.618,0.067156,-7.644474,-0.038315,-0.003662,0.005737,-0.026888,0.005378,0.027613,0.665063,0.662547,-0.240569,-0.246677,-0.01976,-0.016147
567,341887232176531,-0.075333,10.082565,0.054855,-6.580177,0.059192,-7.639678,-0.03511,-0.001526,0.004669,-0.025818,0.004337,0.023905,0.665119,0.662489,-0.240557,-0.246694,-0.01975,-0.016078
568,341887237089861,-0.072342,10.12027,0.07341,-6.602395,0.079329,-7.670241,-0.03511,0.000595,0.005737,-0.027197,0.005403,0.022296,0.665181,0.662427,-0.240543,-0.246706,-0.019739,-0.01601
569,341887241911639,-0.055588,10.102905,0.057251,-6.57818,0.064857,-7.66803,-0.036179,0.002731,0.00679,-0.029401,0.006445,0.021366,0.665243,0.662369,-0.240533,-0.246707,-0.019728,-0.015941
570,341887246824969,-0.02565,10.116684,0.068619,-6.564207,0.078424,-7.69789,-0.037247,0.002731,0.007858,-0.030223,0.007501,0.022065,0.665313,0.662301,-0.24053,-0.246699,-0.019717,-0.015871
571,341887251677264,-0.022659,10.135834,0.074005,-6.574301,0.08545,-7.714441,-0.03299,0.001663,0.003601,-0.026257,0.003282,0.020096,0.665375,0.662242,-0.240526,-0.246698,-0.019704,-0.015801
572,341887256712664,-0.047806,10.120865,0.091965,-6.583844,0.104645,-7.686656,-0.030853,0.001663,0.002533,-0.02462,0.002232,0.018707,0.665435,0.662183,-0.240512,-0.246706,-0.019691,-0.015731
573,341887261717547,-0.029251,10.12146,0.090164,-6.570037,0.104643,-7.699134,-0.03299,0.000595,0.001465,-0.025552,0.001139,0.020896,0.665499,0.66212,-0.240502,-0.246713,-0.019677,-0.015661
574,341887266691912,-0.013687,10.089737,0.082977,-6.537569,0.099103,-7.685074,-0.030853,0.000595,0.001465,-0.023923,0.001159,0.019514,0.665558,0.662062,-0.240498,-0.246714,-0.019662,-0.015589
575,341887271635760,-0.028641,10.143616,0.09436,-6.583912,0.111883,-7.716367,-0.028732,-0.000473,0.001465,-0.021614,0.001176,0.018956,0.665614,0.662005,-0.240492,-0.246721,-0.019652,-0.015523
576,341887276579607,-0.030441,10.161575,0.096146,-6.596877,0.114982,-7.728883,-0.026596,0.000595,-0.000656,-0.020662,-0.000923,0.016743,0.665665,0.661954,-0.240482,-0.246728,-0.019642,-0.015456
577,341887281523455,-0.023254,10.146606,0.120087,-6.581815,0.140382,-7.721955,-0.025528,0.001663,-0.000656,-0.020539,-0.000912,0.015238,0.665722,0.661899,-0.240471,-0.246734,-0.01963,-0.015388
578,341887286467303,-0.018463,10.140015,0.096146,-6.573712,0.117644,-7.720235,-0.023392,0.000595,-0.001724,-0.018212,-0.001962,0.014662,0.665768,0.661854,-0.240464,-0.246738,-0.019618,-0.015319
579,341887291411150,-0.028046,10.156174,0.120697,-6.591655,0.143382,-7.726114,-0.022339,-0.000473,-0.000656,-0.016725,-0.000887,0.014804,0.665817,0.661804,-0.240457,-0.246747,-0.019605,-0.015249
580,341887296354998,-0.023849,10.129852,0.109924,-6.571448,0.133759,-7.708736,-0.019135,-0.002594,0.001465,-0.012923,0.001261,0.014367,0.665858,0.661759,-0.240461,-0.246751,-0.019592,-0.015177
581,341887301268328,-0.034027,10.178925,0.140442,-6.611241,0.165444,-7.739216,-0.015945,-0.002594,0.001465,-0.010491,0.001293,0.012304,0.665901,0.661713,-0.240461,-0.246759,-0.019578,-0.015106
582,341887306212176,-0.018463,10.140015,0.109924,-6.574231,0.136022,-7.719671,-0.015945,-0.005798,0.001465,-0.008418,0.001284,0.014748,0.665935,0.661672,-0.240473,-0.246766,-0.019563,-0.015034
583,341887311156023,0.010254,10.13942,0.127274,-6.552261,0.154991,-7.737438,-0.017014,-0.005798,0.000397,-0.009226,0.000203,0.01543,0.665978,0.661622,-0.240489,-0.246768,-0.019547,-0.014961
584,341887316099871,0.016846,10.153183,0.141037,-6.556475,0.170177,-7.751838,-0.013809,-0.006851,0.001465,-0.006106,0.001301,0.01417,0.666019,0.661573,-0.240511,-0.246768,-0.01953,-0.014887
585,341887321043719,0.046173,10.161575,0.126083,-6.53975,0.156905,-7.777075,-0.013809,-0.007919,0.000397,-0.005408,0.000229,0.014975,0.666058,0.661525,-0.240543,-0.246762,-0.019512,-0.014812
586,341887325987566,0.033005,10.183716,0.145233,-6.56449,0.177252,-7.785012,-0.01062,-0.006851,0.000397,-0.003667,0.000265,0.012098,0.666095,0.661479,-0.240569,-0.246759,-0.019493,-0.014738
587,341887330931414,0.050369,10.174133,0.158997,-6.54549,0.192552,-7.788458,-0.008484,-0.010056,0.000397,3.6e-05,0.000276,0.01316,0.666132,0.661429,-0.240605,-0.246755,-0.019474,-0.014662
588,341887335875262,0.053955,10.174744,0.15361,-6.54358,0.188543,-7.790888,-0.008484,-0.012192,0.001465,0.001412,0.001335,0.014798,0.666167,0.66138,-0.240647,-0.246753,-0.019455,-0.014583
589,341887340758074,0.060532,10.173538,0.179352,-6.538379,0.215794,-7.793578,-0.006348,-0.012192,0.000397,0.003048,0.000288,0.013406,0.666206,0.661327,-0.240688,-0.246751,-0.019435,-0.014505
590,341887345823992,0.038391,10.186707,0.169174,-6.564325,0.206568,-7.788855,-0.005295,-0.015381,-0.001724,0.005927,-0.001835,0.015135,0.666234,0.66128,-0.240727,-0.246764,-0.019415,-0.014424
591,341887350615252,0.07431,10.166351,0.160797,-6.524318,0.199585,-7.796136,3.1e-05,-0.016449,-0.000656,0.010674,-0.000717,0.012512,0.666255,0.66124,-0.240781,-0.246762,-0.019395,-0.014342
592,341887355589617,0.080292,10.114883,0.136261,-6.487003,0.175796,-7.760397,0.004303,-0.01857,0.001465,0.015292,0.001438,0.011383,0.666262,0.66121,-0.24085,-0.246754,-0.019375,-0.014259
593,341887360502947,0.07251,10.143021,0.13266,-6.511864,0.172964,-7.776214,0.005371,-0.019638,0.001465,0.016799,0.001443,0.011504,0.666265,0.661184,-0.240919,-0.246749,-0.019354,-0.014174
594,341887365446795,0.047974,10.133438,0.054855,-6.524758,0.095051,-7.753081,0.004303,-0.021774,0.001465,0.01737,0.001423,0.013822,0.666245,0.661178,-0.240991,-0.246747,-0.019333,-0.014087
595,341887370390643,0.049759,10.092133,0.049469,-6.497434,0.089646,-7.722135,0.005371,-0.021774,0.002533,0.01818,0.002501,0.013139,0.666223,0.661175,-0.241066,-0.246742,-0.019316,-0.014011
596,341887375334490,0.01564,10.088547,0.017746,-6.521736,0.057184,-7.696957,0.007492,-0.020706,0.001465,0.019111,0.001458,0.010939,0.666185,0.661189,-0.241133,-0.246743,-0.019299,-0.013933
597,341887380278338,-0.009491,10.10231,0.068619,-6.550786,0.107761,-7.690057,0.006424,-0.019638,0.002533,0.017601,0.00252,0.010825,0.666161,0.661189,-0.241187,-0.246753,-0.019282,-0.013853
598,341887385222186,-0.015472,10.093933,0.086578,-6.550744,0.125762,-7.679009,0.002167,-0.019638,0.002533,0.014359,0.002477,0.013581,0.666149,0.661178,-0.241235,-0.246769,-0.019266,-0.013771
599,341887390135516,-0.042419,10.072983,0.09375,-6.55846,0.132548,-7.644909,0.004303,-0.019638,0.002533,0.015988,0.002498,0.012196,0.666133,0.661171,-0.241275,-0.246792,-0.01925,-0.013687
600,341887395079363,-0.054977,10.099319,0.102737,-6.585796,0.141596,-7.656168,0.002167,-0.017517,0.003601,0.012982,0.003554,0.011972,0.666123,0.661159,-0.241309,-0.246816,-0.019234,-0.013601
601,341887400023211,-0.110046,10.087952,0.129669,-6.621106,0.167833,-7.611083,0.001099,-0.015381,0.001465,0.010796,0.001416,0.011017,0.666117,0.661147,-0.241317,-0.246859,-0.019219,-0.013514
602,341887404967059,-0.117233,10.086746,0.130264,-6.626392,0.168292,-7.604988,3.1e-05,-0.015381,0.002533,0.009978,0.002473,0.011718,0.666112,0.661133,-0.241325,-0.246902,-0.019204,-0.013427
603,341887409910906,-0.107651,10.057419,0.128479,-6.600718,0.166507,-7.58833,-0.001022,-0.016449,0.002533,0.009869,0.002459,0.013213,0.666109,0.661116,-0.241337,-0.246945,-0.019189,-0.013338
604,341887414824236,-0.113632,10.071182,0.138046,-6.614745,0.176145,-7.594378,-0.003159,-0.013245,0.000397,0.006177,0.000314,0.012137,0.666111,0.661096,-0.241336,-0.24699,-0.019174,-0.013249
605,341887419768084,-0.123215,10.096329,0.139252,-6.638372,0.177398,-7.607295,-0.003159,-0.011124,0.001465,0.004797,0.00139,0.010532,0.666122,0.661085,-0.241313,-0.247014,-0.01916,-0.01316
606,341887424711932,-0.116638,10.089142,0.105728,-6.628555,0.143975,-7.606393,-0.007416,-0.007919,0.002533,-0.000528,0.002427,0.010861,0.666132,0.661075,-0.241294,-0.247034,-0.019147,-0.013071
607,341887429655779,-0.108856,10.094528,0.140442,-6.626314,0.179197,-7.615179,-0.007416,-0.00473,0.004669,-0.002606,0.004575,0.008453,0.666153,0.661053,-0.241278,-0.247051,-0.019135,-0.012982
608,341887434599627,-0.078918,10.115479,0.121292,-6.61701,0.160808,-7.650693,-0.008484,-0.002594,0.001465,-0.004787,0.001368,0.007488,0.666171,0.661034,-0.241266,-0.247064,-0.019124,-0.012894
609,341887439421404,-0.072937,10.114288,0.099747,-6.611618,0.13981,-7.653816,-0.011688,-0.001526,0.004669,-0.007935,0.004543,0.008782,0.66619,0.661013,-0.241263,-0.247071,-0.019114,-0.012806
610,341887444426287,-0.062164,10.109497,0.079987,-6.60027,0.120636,-7.657297,-0.013809,-0.001526,0.004669,-0.00955,0.004521,0.010157,0.666209,0.660993,-0.241264,-0.247075,-0.019106,-0.01272
611,341887449370135,-0.037628,10.113678,0.072815,-6.584349,0.114371,-7.676365,-0.013809,-0.002594,0.00679,-0.008869,0.006637,0.010992,0.666228,0.660971,-0.241277,-0.24707,-0.019098,-0.012633
612,341887454191912,-0.048401,10.107697,0.075195,-6.588649,0.117169,-7.664814,-0.014877,0.000595,0.003601,-0.011733,0.00345,0.009224,0.666248,0.660951,-0.241276,-0.247068,-0.019092,-0.012547
613,341887459196795,0.006668,10.090347,0.065033,-6.535348,0.10824,-7.687456,-0.014877,0.001663,0.002533,-0.012419,0.002387,0.0084,0.666272,0.66093,-0.241288,-0.24705,-0.019086,-0.012463
614,341887464262713,0.030609,10.093338,0.071014,-6.51901,0.115305,-7.705238,-0.012741,0.001663,0.002533,-0.010793,0.00241,0.007016,0.666296,0.660908,-0.241306,-0.247026,-0.019081,-0.012378
615,341887469176043,0.008469,10.095123,0.066223,-6.536992,0.110835,-7.69231,-0.011688,0.001663,0.000397,-0.00998,0.000285,0.006312,0.666312,0.660893,-0.241319,-0.247012,-0.01908,-0.012305
616,341887474119891,-0.011292,10.087952,0.048874,-6.547313,0.093737,-7.674193,-0.013809,-0.000473,0.002533,-0.010221,0.00239,0.009335,0.666325,0.660879,-0.241331,-0.247001,-0.01908,-0.012233
617,341887479063738,-0.020859,10.08316,0.054855,-6.551533,0.100089,-7.664274,-0.013809,-0.000473,0.003601,-0.010226,0.003458,0.009346,0.66634,0.660864,-0.241341,-0.246992,-0.019081,-0.01216
618,341887484007586,0.01445,10.091537,0.09137,-6.530247,0.137681,-7.693163,-0.009552,-0.000473,0.001465,-0.006974,0.001366,0.006565,0.66636,0.660844,-0.241356,-0.246977,-0.019083,-0.012088
619,341887488951434,0.018036,10.090347,0.088974,-6.526727,0.136119,-7.694597,-0.01062,-0.001526,0.003601,-0.007115,0.003486,0.008081,0.666383,0.660821,-0.241375,-0.246958,-0.019085,-0.012016
620,341887493864764,-0.00769,10.083755,0.09436,-6.542189,0.142019,-7.672719,-0.012741,-0.003662,0.004669,-0.00735,0.004522,0.011093,0.666406,0.660793,-0.241392,-0.246952,-0.019089,-0.011943
621,341887498808611,0.038391,10.094528,0.107529,-6.514313,0.156781,-7.7105,-0.014877,-0.00473,0.001465,-0.008269,0.001292,0.013259,0.666438,0.660756,-0.241416,-0.246943,-0.019092,-0.011871
622,341887503752459,0.043777,10.107101,0.17157,-6.518817,0.222424,-7.722726,-0.014877,-0.00473,0.000397,-0.008264,0.000223,0.013248,0.666487,0.660701,-0.241433,-0.246941,-0.019096,-0.011799
623,341887508696307,0.028809,10.108902,0.123688,-6.531449,0.175594,-7.714618,-0.015945,-0.007919,0.001465,-0.007014,0.001263,0.01638,0.666522,0.660656,-0.241457,-0.246942,-0.019099,-0.011728
624,341887513609637,0.011459,10.130447,0.153015,-6.559102,0.206106,-7.71915,-0.017014,-0.008987,0.000397,-0.00713,0.000177,0.017875,0.666563,0.660604,-0.241473,-0.246956,-0.019102,-0.011656
625,341887518553484,-0.010696,10.12027,0.138641,-6.569693,0.192497,-7.696849,-0.015945,-0.010056,0.002533,-0.005632,0.002316,0.018019,0.666596,0.660559,-0.24149,-0.246972,-0.019105,-0.011586
626,341887523497332,-0.011292,10.16037,0.11351,-6.596515,0.168451,-7.726811,-0.014877,-0.013245,0.002533,-0.00275,0.002309,0.019755,0.666618,0.66052,-0.241515,-0.246989,-0.019106,-0.011515
627,341887528441180,-0.011292,10.207062,0.139847,-6.627487,0.196088,-7.761561,-0.017014,-0.015381,0.001465,-0.002986,0.001205,0.022756,0.666649,0.660471,-0.241538,-0.247016,-0.019107,-0.011444
628,341887533385027,-0.047195,10.186707,0.11232,-6.642098,0.168793,-7.722563,-0.014877,-0.015381,0.004669,-0.001371,0.004429,0.021406,0.666667,0.660434,-0.241561,-0.247044,-0.019107,-0.011372
629,341887538420428,-0.066956,10.186111,0.11351,-6.657355,0.170153,-7.70876,-0.011688,-0.015381,0.001465,0.001072,0.001257,0.019303,0.666676,0.660406,-0.241575,-0.247081,-0.019106,-0.0113
630,341887543364275,-0.050186,10.204666,0.117096,-6.657186,0.174317,-7.733233,-0.007416,-0.014313,0.000397,0.003637,0.000239,0.015708,0.66668,0.660384,-0.241593,-0.24711,-0.019103,-0.011227
