,time,gyro_x,gyro_y,gyro_z,acce_x,acce_y,acce_z,linacce_x,linacce_y,linacce_z,grav_x,grav_y,grav_z,magnet_x,magnet_y,magnet_z,pos_x,pos_y,pos_z,ori_w,ori_x,ori_y,ori_z,rv_w,rv_x,rv_y,rv_z
0,1917663617220121.0,-0.058044,0.043106,0.03154,0.7838576293475507,9.883506240457482,-0.9671402404574818,-0.045372,-0.031353,-0.038662,0.815143,9.730016,-0.912532,8.040454277960192,-41.77201048845824,12.25497946221312,-0.001301,-0.124215,-0.025744,0.672843,0.737484,-0.058187,0.003895,0.48789399999999994,0.4912089999999999,-0.5524859999999999,-0.46414799999999995
1,1917663622163969.0,-0.060181,0.042038,0.033676,0.8005043890861936,9.869579610909357,-0.9748579260066248,-0.020705,-0.057936,-0.05212,0.816819,9.730119,-0.909939,7.646105244290765,-41.578505271878655,12.795326702908927,-0.001398,-0.124346,-0.025794,0.672956,0.73738,-0.058178,0.004014,0.48804700000000006,0.491153,-0.552416,-0.46413000000000004
2,1917663627107817.0,-0.058044,0.039917,0.033676,0.8100049444220373,9.854666277732852,-0.9952485372432567,-0.025317,-0.063526,-0.081968,0.818449,9.73019,-0.907705,7.251756210621338,-41.38500005529907,13.335673943604736,-0.001496,-0.124475,-0.025845,0.673069,0.737276,-0.058174,0.004132,0.488187,0.491104,-0.552356,-0.46410499999999993
3,1917663632021147.0,-0.060181,0.043106,0.037933,0.8179647138158845,9.842198286218716,-1.0032152859054857,-0.011108,-0.080318,-0.077846,0.820414,9.730244,-0.905353,6.9275658056802385,-41.24133989106063,13.810933031088679,-0.001595,-0.124602,-0.025897,0.673182,0.737173,-0.058172,0.004254,0.48834099999999997,0.491046,-0.5522979999999998,-0.464072
4,1917663636964994.0,-0.060181,0.045242,0.036865,0.8382923314969092,9.820676946374554,-0.988028001694834,0.010139000000000002,-0.104102,-0.058942,0.82254,9.730298,-0.902834,7.316884305157901,-41.61079123393202,13.636713947154991,-0.001695,-0.124729,-0.025951,0.673297,0.737067,-0.058169,0.004384,0.4885070000000001,0.49098400000000003,-0.552237,-0.4640350000000001
5,1917663641908842.0,-0.061249,0.048431,0.037933,0.8427352221504383,9.830154407667468,-0.98950294458345,-0.0015099999999999992,-0.068931,-0.080028,0.824611,9.730349,-0.900396,7.70620288338365,-41.98024265153293,13.462494827981725,-0.001795,-0.124853,-0.026007,0.673414,0.73696,-0.058162,0.004519,0.48867299999999997,0.4909299999999999,-0.552173,-0.463995
6,1917663646852690.0,-0.064438,0.046295,0.041122,0.8221591294143752,9.846315481499431,-0.9671677959016944,-0.032197,-0.066101,-0.030449000000000004,0.826574,9.730458,-0.897408,8.095521461609401,-42.34969406913385,13.28827570880846,-0.001894,-0.124956,-0.026063,0.673535,0.736849,-0.058158,0.004658,0.48884799999999995,0.4908619999999999,-0.552096,-0.4639750000000001
7,1917663651796537.0,-0.065506,0.0495,0.044327,0.8123298144847525,9.835308575722104,-0.9371730195544077,-0.030143,-0.086436,-0.020525,0.828738,9.730562,-0.894289,8.466298902962853,-42.650353632332646,13.129829246592513,-0.001994,-0.125058,-0.02612,0.673659,0.736734,-0.058159,0.004802,0.48903500000000005,0.490789,-0.5520160000000001,-0.4639490000000001
8,1917663656709867.0,-0.067642,0.0495,0.042191,0.8277975707324767,9.809278143727573,-0.9390891424742487,-0.008408000000000002,-0.115531,-0.036883,0.830981,9.73065,-0.891241,8.654206600908033,-42.27915828045619,13.125978621095022,-0.002094,-0.125159,-0.026178,0.673786,0.736617,-0.058158,0.00495,0.4892210000000001,0.4907160000000001,-0.551941,-0.46392000000000005
9,1917663661684233.0,-0.068695,0.0495,0.042191,0.8480635222213242,9.816818897230322,-0.9499070371971021,0.006583,-0.07967,-0.049039,0.833348,9.730728,-0.888171,8.84444858827643,-41.90335174237869,13.122080161078404,-0.002197,-0.125259,-0.02624,0.673918,0.736496,-0.058155,0.005097,0.48941200000000007,0.49063900000000005,-0.5518670000000001,-0.4638880000000001
10,1917663666628080.0,-0.070831,0.05162,0.044327,0.8347964472686958,9.846199053578722,-0.9708824420907444,-0.031459,-0.054214,-0.081961,0.835482,9.730811,-0.885263,9.03352339268875,-41.52985087295034,13.11820561910506,-0.002299,-0.125358,-0.026303,0.674051,0.736373,-0.058153,0.005246,0.4895939999999999,0.49057500000000004,-0.55179,-0.463855
11,1917663671541410.0,-0.072968,0.05162,0.046448,0.8177948572298218,9.844251572072302,-0.9726847148424795,-0.036632,-0.075844,-0.066025,0.837676,9.730904,-0.882161,9.165995995554724,-41.26727631457364,13.141572657286822,-0.002401,-0.125454,-0.026368,0.674188,0.736247,-0.058152,0.0054,0.4897830000000001,0.4905030000000001,-0.5517100000000001,-0.46382700000000004
12,1917663676485258.0,-0.075089,0.0495,0.049652,0.8340325928212194,9.842663981584588,-0.9572595924983939,-0.008693999999999997,-0.061684,-0.056863,0.840248,9.73098,-0.878855,8.980883984270562,-41.626965651568284,13.321417325784141,-0.002505,-0.125549,-0.026435,0.67433,0.736116,-0.058159,0.005557,0.48998400000000003,0.49041400000000007,-0.551637,-0.46379600000000004
13,1917663681398588.0,-0.076157,0.0495,0.049652,0.8487395713416359,9.857759713815884,-0.9464371431353074,-0.008268,-0.045268,-0.050785,0.842796,9.731067,-0.875458,8.796914655439496,-41.98443465347446,13.50015182673723,-0.002609,-0.125642,-0.026503,0.674473,0.735983,-0.05817,0.005714,0.49018600000000007,0.4903230000000001,-0.551561,-0.46376900000000004
14,1917663686342436.0,-0.077225,0.0495,0.049652,0.8775088151735247,9.852658147991201,-0.9512718890054872,0.036656,-0.065792,-0.069757,0.845741,9.731108,-0.872153,8.611802644155334,-42.3441239904691,13.67999649523455,-0.002714,-0.125734,-0.026573,0.674618,0.735847,-0.058181,0.005871,0.4903959999999999,0.490224,-0.551496,-0.463728
15,1917663691255766.0,-0.080414,0.048431,0.047516,0.8763578582391168,9.85947328491349,-0.9606301427182786,-0.0035430000000000045,-0.038077,-0.077998,0.848213,9.731194,-0.868773,8.4118948486191,-42.643380704706765,13.872172375435953,-0.002818,-0.125823,-0.026644,0.674767,0.735708,-0.058191,0.006025,0.4905950000000001,0.49013399999999996,-0.55142,-0.463704
16,1917663696199613.0,-0.08255,0.047363,0.048584,0.8571070374607063,9.906324217419957,-0.9674946289695049,-0.01142,0.022632,-0.089882,0.850638,9.73129,-0.865323,8.028165327774873,-42.27765628919754,14.219517045296016,-0.002924,-0.125911,-0.026716,0.674921,0.735565,-0.058201,0.006176,0.49079300000000003,0.4900410000000001,-0.551343,-0.46368400000000004
17,1917663701173979.0,-0.084686,0.047363,0.052841,0.8634448534068463,9.919902275143606,-0.9558813669613374,0.000729999999999998,0.0009370000000000003,-0.067359,0.853401,9.731382,-0.861574,7.642066995507751,-41.90967421008405,14.569005918239116,-0.00303,-0.125998,-0.026789,0.67508,0.735416,-0.058218,0.006331,0.49100699999999997,0.48993299999999995,-0.551266,-0.463664
18,1917663706117826.0,-0.086807,0.047363,0.053909,0.8567208166043568,9.919024554426139,-0.929263428045609,-0.024659,0.015027999999999998,-0.044495,0.85598,9.73151,-0.857552,7.258337474663524,-41.54394979457482,14.91635058809918,-0.003137,-0.126082,-0.026862,0.675242,0.735265,-0.058239,0.00649,0.4912239999999999,0.48982199999999987,-0.551178,-0.46365599999999996
19,1917663711061674.0,-0.088943,0.0495,0.054977,0.8494398148462493,9.91036275906642,-0.9270710741952423,-0.023175,-0.010768,-0.064697,0.858648,9.731622,-0.853602,6.8887511801741725,-41.185081607547794,15.250741419490845,-0.003244,-0.126164,-0.026935,0.675408,0.735109,-0.058261,0.006652,0.49144200000000005,0.489713,-0.551092,-0.4636410000000001
20,1917663716005522.0,-0.088943,0.050568,0.053909,0.8793979633305878,9.920019166935756,-0.9167733701460886,0.022847,0.024796,-0.039008,0.861622,9.731726,-0.849409,7.268757833475818,-41.189596402343554,14.898577069256289,-0.003353,-0.126245,-0.027008,0.675576,0.734952,-0.05828,0.006816,0.4916769999999999,0.48959299999999994,-0.5510049999999999,-0.46362299999999984
21,1917663720949369.0,-0.091064,0.046295,0.051773,0.8910225383081232,9.957305034024314,-0.8992129821404263,0.003921000000000001,0.062409,-0.035,0.864292,9.731867,-0.845072,7.648764409912913,-41.1941111962261,14.546412790254578,-0.003461,-0.126325,-0.027081,0.675745,0.734793,-0.058299,0.006975,0.4919029999999999,0.4894699999999999,-0.5509129999999999,-0.4636219999999998
22,1917663725893217.0,-0.092133,0.045242,0.05072,0.8800227406870114,9.975343666689186,-0.8829349998341373,-0.005878,0.064703,-0.017425,0.866824,9.732034,-0.840543,8.02877106321456,-41.19862599102187,14.194248440020022,-0.003571,-0.126403,-0.027153,0.675917,0.734632,-0.058319,0.007126,0.492129,0.48934599999999995,-0.550814,-0.463631
23,1917663730806547.0,-0.096405,0.042038,0.05072,0.9043291414649535,9.985168570993807,-0.8690581430834078,0.039029,0.078812,-0.014399,0.869684,9.732186,-0.835815,8.406431964169963,-41.20311291633063,13.844257973699467,-0.00368,-0.126481,-0.027224,0.676093,0.734467,-0.058342,0.007272,0.49236399999999997,0.48920299999999994,-0.550722,-0.463641
24,1917663735750395.0,-0.099594,0.04097,0.052841,0.9437450743206506,10.01528970401315,-0.85507105541655,0.068605,0.11893299999999998,-0.0008979999999999995,0.87287,9.732333,-0.830767,8.063412398878429,-41.37476062307085,13.99869628255004,-0.00379,-0.126558,-0.027294,0.676276,0.734295,-0.05837,0.007415,0.49261600000000005,0.489043,-0.550631,-0.46365100000000004
25,1917663740694242.0,-0.10173,0.04097,0.051773,0.9450534276675633,10.066896884228214,-0.8323901872100815,0.043391,0.176504,0.019513000000000003,0.875756,9.73253,-0.825411,7.687740122467458,-41.55395622924412,14.176013378389912,-0.003891,-0.126625,-0.027365,0.676466,0.734119,-0.058374,0.007545,0.49286699999999994,0.488883,-0.5505250000000002,-0.46367899999999995
26,1917663745638090.0,-0.10173,0.037781,0.049652,0.9689537411756995,10.106568666855049,-0.8279520741592379,0.098036,0.199771,0.002967000000000001,0.878955,9.732683,-0.820185,7.312067770068644,-41.73315187166358,14.353330510096004,-0.003992,-0.126692,-0.027434,0.676657,0.733941,-0.058377,0.00767,0.49312,0.48871400000000004,-0.550433,-0.4636970000000001
27,1917663750581938.0,-0.102783,0.036713,0.048584,1.008451629822357,10.119337629656494,-0.8015310736660998,0.120219,0.201457,0.051787,0.88228,9.732859,-0.814511,6.93639541766983,-41.91234751408304,14.530647641802098,-0.004093,-0.12676,-0.027498,0.676849,0.733762,-0.058382,0.007787,0.4933859999999999,0.48852999999999996,-0.550334,-0.46372599999999997
28,1917663755525785.0,-0.102783,0.037781,0.047516,1.0242272030435005,10.1328918502039,-0.7797109072190138,0.125076,0.220347,0.043815,0.88558,9.733028,-0.808885,7.23236605606119,-41.61584220809643,14.075621030873405,-0.004192,-0.126828,-0.027558,0.67704,0.733582,-0.05841,0.007916,0.4936519999999999,0.4883479999999999,-0.5502339999999999,-0.46375200000000005
29,1917663760439115.0,-0.104919,0.036713,0.045395,1.0353265710457062,10.119929858256416,-0.7838092855576564,0.134751,0.180311,0.032875,0.888867,9.733191,-0.80331,7.604768064838751,-41.26573955161597,13.549723913027728,-0.004288,-0.126897,-0.027613,0.677231,0.733402,-0.058436,0.008042,0.49391500000000005,0.48816700000000013,-0.5501370000000001,-0.4637780000000001
30,1917663765382963.0,-0.107056,0.036713,0.043259,1.0681162410949931,10.113817185319615,-0.7857672407361633,0.178269,0.196368,0.027834,0.892406,9.733334,-0.797627,7.979483161583917,-40.91346231437858,13.020560308249074,-0.004384,-0.126967,-0.027664,0.677428,0.733217,-0.058458,0.008163,0.494188,0.487977,-0.5500419999999999,-0.4638009999999999
31,1917663770326811.0,-0.108124,0.033524,0.04007,1.1044011113217882,10.135203907586762,-0.7525270180881369,0.202588,0.218224,0.079162,0.895964,9.73351,-0.791472,8.354198258329083,-40.561185077141175,12.491396703470418,-0.004476,-0.127038,-0.027711,0.677627,0.73303,-0.058479,0.008277,0.49446999999999985,0.4877709999999999,-0.5499389999999998,-0.463838
32,1917663775270658.0,-0.109177,0.034576,0.035797,1.1273725170121567,10.128223557909255,-0.7239321301949676,0.218012,0.186462,0.08016,0.899467,9.733688,-0.785273,8.12682390913265,-40.785897804653246,12.392858668202829,-0.004566,-0.127111,-0.027753,0.677828,0.732841,-0.058494,0.008383,0.494753,0.48756700000000003,-0.549833,-0.46387700000000004
33,1917663780214506.0,-0.105988,0.034576,0.036865,1.1341621296117923,10.11788781484625,-0.724304537081844,0.211905,0.188822,0.068245,0.902968,9.733843,-0.779325,7.7569702832586405,-41.147150234710395,12.396224396145639,-0.004651,-0.127186,-0.02779,0.678028,0.732655,-0.058506,0.008487,0.495029,0.48736900000000005,-0.549732,-0.463909
34,1917663785158354.0,-0.104919,0.033524,0.034729,1.1159613701460886,10.117607759232282,-0.7034900552506873,0.178629,0.183428,0.102773,0.906094,9.734043,-0.773155,7.387116657384631,-41.508402664767544,12.39959012408845,-0.004733,-0.127263,-0.027823,0.678223,0.732472,-0.058518,0.008589,0.4953010000000001,0.48717500000000014,-0.549618,-0.46395800000000004
35,1917663790102201.0,-0.10173,0.035645,0.03154,1.0959921676556739,10.103705001694834,-0.6840897595425183,0.162999,0.160283,0.100372,0.908963,9.734251,-0.767166,7.0172631063215025,-41.869655021753594,12.40295585135047,-0.004812,-0.127342,-0.027851,0.678415,0.732293,-0.058523,0.008688,0.4955639999999999,0.48699499999999996,-0.5494999999999999,-0.4640059999999999
36,1917663795046049.0,-0.098526,0.034576,0.030472,1.1164083336696435,10.085934685073044,-0.678439314761093,0.204541,0.143864,0.101691,0.912127,9.734412,-0.761333,7.054832026908844,-41.971569436492956,12.15005930312818,-0.004887,-0.127423,-0.027876,0.6786,0.73212,-0.058524,0.008785,0.49582999999999994,0.48681,-0.5493939999999999,-0.46404199999999995
37,1917663799989897.0,-0.097458,0.028198,0.029404,1.1193848886782118,10.084718777845112,-0.6750342407361634,0.17341,0.15134,0.096573,0.914953,9.734592,-0.75562,7.2443212919273465,-41.97678149405212,11.801607284061546,-0.004959,-0.127507,-0.027897,0.678782,0.73195,-0.058529,0.008874,0.496077,0.486628,-0.5492899999999998,-0.464093
38,1917663804903227.0,-0.091064,0.026062,0.024078,1.1121938568992924,10.097780713815885,-0.674774,0.179009,0.16587,0.091241,0.91754,9.734761,-0.750286,7.432640854036327,-41.981961377973946,11.455306232969226,-0.005028,-0.127593,-0.027914,0.678955,0.731788,-0.058536,0.00895,0.49630599999999997,0.4864589999999999,-0.549192,-0.464141
39,1917663809816557.0,-0.085739,0.0186,0.023026,1.1257062852094202,10.073238001601155,-0.653568858221817,0.193552,0.109663,0.123043,0.920212,9.734914,-0.745015,7.620960416145307,-41.98714126189577,11.109005181876908,-0.005092,-0.127681,-0.027928,0.679116,0.731637,-0.058544,0.009013,0.49652700000000005,0.4862800000000001,-0.5491060000000001,-0.46419400000000005
40,1917663814760405.0,-0.081482,0.009018,0.020889,1.1118360694851601,10.063039336219143,-0.6610355605877366,0.154073,0.131693,0.077635,0.922411,9.735064,-0.740327,7.687852857530465,-41.880531757443116,11.463011105072562,-0.005154,-0.127772,-0.027938,0.679269,0.731493,-0.058563,0.00906,0.49671000000000004,0.48611500000000013,-0.5490340000000001,-0.464255
41,1917663819704252.0,-0.077225,0.0004880000000000006,0.021957,1.0864053887633682,10.065423018419862,-0.6725326480719067,0.135102,0.117352,0.083314,0.924486,9.735207,-0.735846,7.678735268500278,-41.7045929186649,12.252540801978633,-0.005213,-0.127865,-0.027945,0.679413,0.731356,-0.058596,0.00909,0.496875,0.485946,-0.5489759999999999,-0.46432499999999993
42,1917663824648100.0,-0.072968,-0.009094,0.020889,1.1235932598376812,10.059130851842937,-0.6736987778495618,0.20955799999999997,0.115022,0.069603,0.927082,9.735271,-0.731724,7.669617677625862,-41.52865404429925,13.042070658584162,-0.005269,-0.127961,-0.027949,0.679548,0.731227,-0.058644,0.009105,0.497034,0.4857600000000001,-0.5489490000000001,-0.46438100000000004
43,1917663829591947.0,-0.068695,-0.022934,0.017685,1.1379260766162465,10.044871483365888,-0.684989221234395,0.174984,0.090137,0.053327,0.92921,9.735344,-0.728022,7.660500088595675,-41.35271520552103,13.831600355490231,-0.005321,-0.128059,-0.02795,0.679674,0.731105,-0.058707,0.009096,0.497153,0.485578,-0.548938,-0.4644559999999999
44,1917663834535795.0,-0.066574,-0.034653,0.018753,1.1361878520087996,10.040510926002174,-0.6982481667698927,0.193513,0.099324,0.036134,0.931491,9.735381,-0.72461,7.671489716641428,-41.194681271755506,14.507795010290874,-0.00537,-0.128158,-0.027948,0.679792,0.730989,-0.058789,0.009063,0.49725600000000003,0.48538300000000006,-0.548952,-0.464534
45,1917663839449125.0,-0.06337,-0.049576,0.018753,1.13518871479058,10.040059143100708,-0.7167684279276988,0.173951,0.090048,0.011036999999999998,0.933561,9.735403,-0.721652,7.864757398725786,-41.19999700893245,14.15201512484061,-0.005414,-0.128258,-0.027943,0.679902,0.730879,-0.058893,0.009008,0.497325,0.48518500000000003,-0.5489900000000001,-0.464622
46,1917663844392973.0,-0.060181,-0.05809,0.018753,1.1394322779302681,10.050904666855049,-0.7458438335889372,0.191982,0.114105,-0.025553,0.935731,9.73538,-0.719153,8.059225517809459,-41.205345763567436,13.794025395853648,-0.005463,-0.128345,-0.027936,0.680018,0.730761,-0.059029,0.008938,0.49737399999999976,0.4849829999999999,-0.5490519999999998,-0.4647069999999998
47,1917663849336821.0,-0.059113,-0.067688,0.021957,1.1611627620715204,10.068824223774522,-0.7686185573303543,0.212116,0.125498,-0.042144,0.938176,9.735312,-0.716879,8.253693636893132,-41.21069451820242,13.436035666866685,-0.005507,-0.128433,-0.027926,0.680116,0.730659,-0.059171,0.00885,0.49741300000000005,0.48476600000000003,-0.549138,-0.46479
48,1917663854280668.0,-0.058044,-0.081528,0.021957,1.1777206482377696,10.043251073670548,-0.8008555188593985,0.221432,0.070932,-0.089363,0.940687,9.735197,-0.71514,8.42974620945644,-41.25236214092936,13.078477364223241,-0.005548,-0.12852,-0.027912,0.680211,0.730559,-0.059335,0.008744,0.4974240000000001,0.4845420000000001,-0.5492550000000002,-0.4648740000000002
49,1917663859224516.0,-0.058044,-0.092178,0.023026,1.1982855742759486,10.031302518661981,-0.820236,0.245516,0.089232,-0.091015,0.943395,9.73506,-0.713453,8.43775720986154,-41.6254396597951,12.724855096341306,-0.005583,-0.128607,-0.027896,0.680303,0.73046,-0.05952,0.008617,0.497426,0.484299,-0.5493909999999999,-0.464964
50,1917663864137846.0,-0.055923,-0.09964,0.025146,1.2360949986601755,10.053828713554555,-0.8304902851925272,0.288302,0.113346,-0.110294,0.946502,9.73486,-0.712058,8.445718758966688,-41.9962141993377,12.373415711988805,-0.005613,-0.128691,-0.027876,0.680391,0.730363,-0.059722,0.008477,0.4974219999999999,0.48404299999999995,-0.549552,-0.46504399999999996
51,1917663869081694.0,-0.053787,-0.107101,0.025146,1.2489677392601348,10.049486607855583,-0.8522750956273526,0.273176,0.086212,-0.135838,0.949484,9.734647,-0.711015,8.453729759371786,-42.36929171820345,12.01979344410687,-0.005637,-0.128774,-0.027853,0.680475,0.730268,-0.059939,0.008326,0.4973969999999999,0.483788,-0.5497279999999999,-0.46512799999999993
52,1917663874025541.0,-0.054855,-0.113495,0.025146,1.2435244259214684,10.031392740651008,-0.8599816110752191,0.269486,0.073541,-0.132091,0.952425,9.734438,-0.709929,8.44318542514451,-42.70733502365263,11.731706337344658,-0.005654,-0.12885,-0.027828,0.680556,0.730175,-0.060168,0.008163,0.49736499999999995,0.48352399999999995,-0.5499100000000001,-0.4652219999999999
53,1917663878969389.0,-0.052719,-0.120941,0.024078,1.2374280739978252,10.012547092413238,-0.8538151295757879,0.256403,0.049114,-0.125858,0.9552,9.734238,-0.708946,8.250798520955737,-42.70204327096626,12.08586412510101,-0.005665,-0.128921,-0.027802,0.680636,0.730083,-0.060407,0.007987,0.49731699999999995,0.48325699999999994,-0.550099,-0.46532699999999994
54,1917663883913237.0,-0.053787,-0.130539,0.025146,1.2485625774050046,10.00235,-0.8545382971111364,0.280225,0.048634,-0.133345,0.958188,9.734011,-0.70802,8.058411616766964,-42.69675151827988,12.440021912857361,-0.005669,-0.128986,-0.027775,0.680713,0.729992,-0.06066,0.007795,0.4972619999999999,0.48297199999999996,-0.550306,-0.465436
55,1917663888826567.0,-0.054855,-0.142258,0.026215,1.2429331411162814,10.004059143031071,-0.8566568570727273,0.247431,0.051126,-0.133019,0.960913,9.733809,-0.70711,7.867212302395281,-42.69149243118284,12.791993511360577,-0.005669,-0.129046,-0.027747,0.68079,0.7299,-0.060931,0.007588,0.497188,0.48268,-0.550521,-0.46556600000000004
56,1917663893770414.0,-0.055923,-0.156097,0.027283,1.2101745953232372,9.985754169350507,-0.8300276702446495,0.210166,0.016798,-0.08878,0.963373,9.733656,-0.705864,7.684288204430224,-42.6775240660123,13.119705168227416,-0.005663,-0.129103,-0.027717,0.680868,0.729805,-0.061227,0.007359,0.49709799999999976,0.48236599999999985,-0.5507379999999998,-0.46572999999999987
57,1917663898714262.0,-0.055923,-0.167816,0.028351,1.1792362775669882,9.969163370343505,-0.8130542037350258,0.179721,0.013042,-0.094105,0.965599,9.733518,-0.704723,7.683522842129707,-42.49653042683314,12.938328847897992,-0.005653,-0.129158,-0.027686,0.680944,0.72971,-0.061545,0.007108,0.49698599999999993,0.4820449999999999,-0.550966,-0.46591199999999994
58,1917663903658110.0,-0.055923,-0.17421,0.027283,1.1607259245207224,9.943581717042822,-0.8175853894811065,0.166234,-0.028681999999999992,-0.099958,0.967675,9.733386,-0.703689,7.682757479829191,-42.31553678765397,12.756952527568567,-0.005639,-0.129212,-0.027654,0.681019,0.729614,-0.061879,0.006842,0.49685999999999997,0.481722,-0.5512009999999999,-0.46610299999999993
59,1917663908601957.0,-0.055923,-0.188049,0.027283,1.14523205541655,9.921959888839625,-0.7945469996727246,0.14578,-0.035029,-0.057619,0.969546,9.733294,-0.70238,7.681992117683485,-42.134543185084674,12.575576243926418,-0.005621,-0.129263,-0.027622,0.681093,0.729519,-0.062228,0.006557,0.49672000000000005,0.48137899999999995,-0.55144,-0.466324
60,1917663913545805.0,-0.055923,-0.202972,0.028351,1.1033151106672374,9.909532351726227,-0.7673466850730443,0.08513899999999999,-0.051427,-0.044037,0.970938,9.733253,-0.701048,7.705031083599397,-41.96446014334369,12.416584198106019,-0.0056,-0.129314,-0.027589,0.681164,0.729423,-0.062602,0.006247,0.496551,0.48102699999999987,-0.5516849999999999,-0.46657599999999994
61,1917663918459135.0,-0.053787,-0.210434,0.027283,1.071234428919694,9.885979715120701,-0.7582332858535861,0.071962,-0.079532,-0.040509,0.972166,9.733215,-0.699853,8.08751984929992,-41.96024425426608,12.59671405563168,-0.005577,-0.129363,-0.027556,0.68123,0.72933,-0.062992,0.00592,0.49636699999999995,0.48067499999999996,-0.5519369999999999,-0.46683699999999995
62,1917663923402983.0,-0.050598,-0.218948,0.025146,1.0616335554972565,9.857860851645519,-0.7496539258407621,0.063186,-0.106236,-0.0303,0.973218,9.733189,-0.698777,8.472384354499246,-41.95600217917961,12.777962747632525,-0.005551,-0.129412,-0.027524,0.681291,0.729241,-0.063394,0.005574,0.4961650000000001,0.48031700000000005,-0.552199,-0.46711100000000016
63,1917663928346830.0,-0.047394,-0.225342,0.026215,1.0531684081131556,9.836511964280852,-0.7585559055241798,0.053272,-0.122003,-0.055002,0.974231,9.733136,-0.698098,8.857248781851416,-41.9517601049512,12.95921140297191,-0.005523,-0.129459,-0.027493,0.681345,0.729157,-0.063808,0.005215,0.49594399999999994,0.4799609999999999,-0.552477,-0.467383
64,1917663933290678.0,-0.044205,-0.228531,0.024078,1.027009777486282,9.834185018581275,-0.7484830182539998,0.013866000000000003,-0.112715,-0.020568999999999997,0.974804,9.733134,-0.697305,9.185226305364091,-41.94797467899425,13.122559,-0.005495,-0.129504,-0.027464,0.681392,0.729078,-0.064229,0.004847,0.4957109999999999,0.4796099999999999,-0.552745,-0.46767299999999995
65,1917663938234526.0,-0.038879,-0.233856,0.023026,0.990850162449202,9.834319462223649,-0.7475294845143873,-0.020389999999999995,-0.117731,-0.045484,0.975033,9.733133,-0.697002,8.99410978603537,-41.94835617903283,13.122559,-0.005466,-0.129547,-0.027437,0.681431,0.729007,-0.064653,0.004469,0.4954509999999999,0.47927299999999995,-0.5530229999999999,-0.4679649999999999
66,1917663943147856.0,-0.033554,-0.237061,0.023026,1.0002614310080067,9.82048057027951,-0.7802142879769346,0.021038000000000008,-0.136351,-0.08416500000000002,0.9756,9.733055,-0.6973,8.804173014534024,-41.94873532410051,13.122559,-0.00544,-0.129574,-0.027422,0.681481,0.728929,-0.065036,0.004061,0.4951810000000001,0.478938,-0.5533270000000001,-0.46823399999999993
67,1917663948091703.0,-0.032486,-0.243454,0.023026,1.025778406371597,9.792083595323238,-0.7913892229759537,0.033649,-0.16964,-0.074355,0.976276,9.732965,-0.697616,8.613056533862746,-41.94911682406193,13.122559,-0.005415,-0.129598,-0.027408,0.681503,0.728872,-0.065474,0.003667,0.49490499999999993,0.478591,-0.5536419999999999,-0.46850899999999995
68,1917663953035551.0,-0.03035,-0.247711,0.019821,1.0162681849878878,9.800318370670782,-0.8147958151735247,0.00715,-0.128469,-0.121487,0.976531,9.732882,-0.698419,8.422582740445021,-41.96651625955498,13.106408745643945,-0.005389,-0.129621,-0.027397,0.68152,0.728817,-0.065918,0.003263,0.494601,0.47826,-0.5539639999999999,-0.468786
69,1917663957979399.0,-0.025024,-0.246643,0.021957,1.0078013889247808,9.81464761107522,-0.8348484259214685,0.011634,-0.132131,-0.119898,0.976931,9.732766,-0.699463,8.238407656462078,-42.15069134353792,12.931986111496924,-0.005363,-0.129642,-0.027387,0.68153,0.728769,-0.066364,0.002855,0.494295,0.47793299999999994,-0.5542949999999999,-0.469052
70,1917663962892729.0,-0.022888,-0.245575,0.021957,1.0197557137812847,9.78798357268146,-0.8571692845656611,0.028532999999999996,-0.173734,-0.157989,0.977502,9.732603,-0.70094,8.055369471350824,-42.33372952864918,12.758640175085938,-0.005338,-0.129659,-0.027379,0.681534,0.728727,-0.066808,0.002453,0.493986,0.47761499999999996,-0.554636,-0.46929800000000005
71,1917663967836576.0,-0.020767,-0.246643,0.021957,1.0354427396100647,9.79837929234137,-0.8964372191615153,0.042345,-0.122394,-0.195063,0.978136,9.732405,-0.702798,7.871194424621269,-42.517904575378736,12.584217576219661,-0.005313,-0.129675,-0.027372,0.681533,0.728688,-0.067253,0.00205,0.493665,0.4773009999999999,-0.554992,-0.469534
72,1917663972780424.0,-0.019699,-0.246643,0.024078,1.0508414630840188,9.8235777222716,-0.9257200001658628,0.057711,-0.114789,-0.215145,0.978989,9.732171,-0.704868,7.686974253187183,-42.69546257161273,12.406494403094836,-0.005287,-0.129688,-0.027367,0.681529,0.728651,-0.067702,0.001648,0.49334400000000006,0.4769850000000001,-0.5553589999999999,-0.469759
73,1917663977724272.0,-0.020767,-0.247711,0.024078,1.0841784818267066,9.832569500080707,-0.949927815007662,0.102628,-0.103105,-0.238677,0.98019,9.73189,-0.707075,7.500364453737161,-42.522315929017175,12.053843168854545,-0.005259,-0.129699,-0.027363,0.681525,0.728613,-0.068154,0.001246,0.4930269999999998,0.47666199999999986,-0.5557379999999998,-0.46997199999999995
74,1917663982668119.0,-0.020767,-0.248779,0.023026,1.094187390206857,9.831657222975954,-0.978411016118015,0.084918,-0.111709,-0.266742,0.981195,9.731608,-0.709526,7.313754692032998,-42.349169321444265,11.701192005945583,-0.005229,-0.129707,-0.027359,0.681521,0.728575,-0.068606,0.000842,0.49269699999999994,0.4763470000000001,-0.55612,-0.4701850000000001
75,1917663987581449.0,-0.025024,-0.2509,0.025146,1.0976538566033627,9.832362856899293,-0.999282713885084,0.102278,-0.102436,-0.278169,0.982423,9.731315,-0.711871,7.128296820769201,-42.17709149998535,11.350717661117457,-0.005196,-0.129713,-0.027356,0.68152,0.728533,-0.069059,0.000438,0.492374,0.4760229999999999,-0.556505,-0.470396
76,1917663992525297.0,-0.03035,-0.257294,0.026215,1.1117905000807065,9.849696907586763,-0.9880013701460886,0.111748,-0.077819,-0.246376,0.983738,9.731046,-0.713716,6.941687021319178,-42.0039448573898,10.998066426877166,-0.005157,-0.129716,-0.027353,0.681528,0.728482,-0.069525,2.6e-05,0.49205699999999997,0.47567199999999993,-0.5568889999999999,-0.47062699999999996
77,1917663997469145.0,-0.033554,-0.260498,0.027283,1.1215382037710302,9.856118314765544,-0.9697578332616618,0.119331,-0.083677,-0.235187,0.985158,9.730783,-0.715337,7.276709696991592,-42.31663246918998,11.466166397343581,-0.005101,-0.129715,-0.02735,0.681542,0.728424,-0.07,-0.000394,0.491745,0.475309,-0.5572730000000001,-0.4708659999999999
78,1917664002412992.0,-0.038879,-0.266891,0.028351,1.1222740374607063,9.862593461691878,-0.9553726310423846,0.11257,-0.066954,-0.215995,0.986537,9.730553,-0.716568,7.649731967464437,-42.66471186662161,11.994056010761723,-0.005034,-0.129708,-0.027348,0.681562,0.728357,-0.070486,-0.000821,0.49143299999999995,0.4749280000000001,-0.5576539999999999,-0.47112499999999996
79,1917664007356840.0,-0.039932,-0.276474,0.028351,1.1258137408168698,9.869817574078532,-0.9226353885615011,0.12132,-0.065809,-0.171437,0.987954,9.730346,-0.717431,8.022754313389104,-43.01279133445981,12.521945730956956,-0.004954,-0.129696,-0.027347,0.681587,0.728285,-0.070985,-0.001261,0.49112100000000003,0.47452400000000006,-0.558037,-0.47140300000000007
80,1917664012300688.0,-0.043137,-0.290329,0.028351,1.1322092407677178,9.874538444502743,-0.8854690738319625,0.123541,-0.057559,-0.138625,0.989334,9.730168,-0.717936,8.395776659313771,-43.360870802298024,13.049835451152191,-0.00486,-0.129676,-0.027345,0.681613,0.728209,-0.071504,-0.001723,0.49080100000000004,0.47409299999999993,-0.5584259999999999,-0.47170999999999996
81,1917664017244535.0,-0.041,-0.299911,0.027283,1.1251496863626644,9.87098592686687,-0.8875065348717305,0.107416,-0.068954,-0.165279,0.990504,9.729983,-0.718818,8.617152327590077,-43.27475133935668,12.694742288408591,-0.004753,-0.12965,-0.027345,0.681637,0.728132,-0.072041,-0.002207,0.4904539999999999,0.473663,-0.5588309999999999,-0.47202199999999994
82,1917664022157865.0,-0.044205,-0.309494,0.029404,1.131425999356241,9.862124143048808,-0.9081247138331844,0.12816,-0.074929,-0.17995,0.991912,9.729774,-0.719721,8.807019421116538,-43.102859796700244,12.16633467178948,-0.004641,-0.129619,-0.027346,0.681661,0.728054,-0.072592,-0.002703,0.49010400000000004,0.47321600000000014,-0.5592510000000002,-0.4723370000000001
83,1917664027101713.0,-0.047394,-0.320145,0.029404,1.1646271299390676,9.842804129414375,-0.9385071299390677,0.167774,-0.102822,-0.22013,0.993626,9.729515,-0.720865,8.998065829681932,-42.92990058993437,11.6346449748615,-0.004524,-0.129582,-0.027347,0.681688,0.727969,-0.073164,-0.003219,0.48974,0.47274799999999995,-0.559699,-0.47265300000000005
84,1917664032045561.0,-0.047394,-0.330795,0.030472,1.201123685431874,9.824040499914844,-0.9536911851537506,0.198739,-0.113257,-0.214797,0.995613,9.729225,-0.722025,9.189112238247327,-42.756941383168495,11.102955277933521,-0.0044,-0.12954,-0.02735,0.681715,0.727881,-0.073755,-0.003754,0.48937,0.47225900000000004,-0.5601650000000001,-0.4729740000000001
85,1917664036989408.0,-0.047394,-0.341461,0.030472,1.2237337025274042,9.816789611441251,-0.925450096217379,0.211661,-0.116495,-0.167916,0.997671,9.728952,-0.722858,9.084595688850802,-42.854958419627515,11.260044540917024,-0.004278,-0.129469,-0.027355,0.681787,0.727751,-0.074336,-0.004326,0.48899800000000004,0.471744,-0.5606360000000001,-0.473313
86,1917664041902738.0,-0.047394,-0.349976,0.030472,1.2191601434139372,9.812953428675664,-0.8911132864627452,0.190691,-0.119101,-0.141546,0.999529,9.728712,-0.723527,8.896798975271613,-43.02931432463786,11.61174341478044,-0.004149,-0.129393,-0.027362,0.68181,0.727662,-0.074957,-0.004891,0.488617,0.4712220000000001,-0.561105,-0.47367000000000004
87,1917664046846586.0,-0.050598,-0.358505,0.03154,1.2370653336740935,9.8354707040176,-0.8625619812528621,0.233971,-0.076581,-0.110773,1.001727,9.728465,-0.723804,8.707835806334245,-43.20475320056795,11.965626783931688,-0.004012,-0.129311,-0.02737,0.681834,0.72757,-0.075597,-0.005475,0.488242,0.470666,-0.561584,-0.474042
88,1917664051790434.0,-0.053787,-0.363831,0.030472,1.2543803703435057,9.839573092413238,-0.8299771664110628,0.228299,-0.099727,-0.07681,1.00383,9.728257,-0.723693,8.518872637396875,-43.38019207649805,12.319510153082938,-0.003866,-0.129225,-0.027381,0.681862,0.727471,-0.076249,-0.006071,0.48786900000000005,0.470096,-0.5620569999999999,-0.47443299999999994
89,1917664056734281.0,-0.052719,-0.368088,0.03154,1.2738153119425015,9.828342666808258,-0.7917322995454754,0.262403,-0.100715,-0.035926,1.00625,9.728034,-0.723323,8.1949868081313,-43.301876846398066,12.545013222803034,-0.003713,-0.129137,-0.027393,0.681891,0.727369,-0.076909,-0.006676,0.48750399999999994,0.469505,-0.5625339999999999,-0.4748259999999999
90,1917664061678129.0,-0.050598,-0.374481,0.03154,1.279399203573613,9.845104203932443,-0.7349659068962072,0.242816,-0.069622,0.03146500000000001,1.008467,9.727864,-0.722522,7.815958580919184,-43.11985339224105,12.718047885621214,-0.003551,-0.129046,-0.027407,0.681915,0.72727,-0.077578,-0.007289,0.48713899999999993,0.46889999999999993,-0.5630019999999999,-0.4752449999999999
91,1917664066621977.0,-0.051651,-0.379807,0.030472,1.2702859444220373,9.899682296838819,-0.6749806477446313,0.237717,0.0027409999999999934,0.08402000000000001,1.010516,9.727748,-0.721227,7.436930353707069,-42.93782993808402,12.891082548439394,-0.00338,-0.128954,-0.027422,0.681936,0.72717,-0.078256,-0.007913,0.4867750000000001,0.4682810000000001,-0.5634580000000001,-0.4756870000000001
92,1917664071535307.0,-0.051651,-0.3862,0.03154,1.270041142804778,9.944547570715176,-0.6226195729254904,0.23738,0.027024,0.133816,1.012575,9.727658,-0.719549,7.060241839090903,-42.75693010095041,13.063049081363637,-0.003203,-0.128864,-0.027437,0.681957,0.72707,-0.078939,-0.008544,0.48641500000000004,0.467647,-0.5639089999999999,-0.47614400000000007
93,1917664076479155.0,-0.051651,-0.391525,0.030472,1.264278313407757,9.959188871258759,-0.5809687365233996,0.22404,0.033894,0.166005,1.014454,9.727603,-0.717631,7.132154335866594,-42.592423524403294,12.830178107599782,-0.003016,-0.128776,-0.027451,0.681975,0.726968,-0.079636,-0.009189,0.4860479999999999,0.46700099999999994,-0.564358,-0.47662099999999996
94,1917664081423002.0,-0.048462,-0.396851,0.028351,1.2687064630840188,9.97806114835448,-0.5630028888440745,0.238242,0.060893,0.170208,1.01631,9.727542,-0.715846,7.469326056454521,-42.43822102635496,12.35853916936356,-0.002823,-0.128692,-0.027465,0.68199,0.726869,-0.080339,-0.009846,0.48567099999999996,0.46635099999999996,-0.5648139999999999,-0.4771009999999999
95,1917664086366850.0,-0.045273,-0.402176,0.028351,1.2508515737512562,10.002502000165862,-0.5415604997534309,0.193585,0.082324,0.201271,1.01777,9.727527,-0.71398,7.8064978452427205,-42.28401849711584,11.886900135728162,-0.002621,-0.128611,-0.027476,0.681997,0.726774,-0.081049,-0.010513,0.4852790000000002,0.4657020000000001,-0.5652650000000002,-0.4776000000000002
96,1917664091310697.0,-0.038879,-0.408569,0.026215,1.2235631123353938,10.049730180005975,-0.5076135953232371,0.176722,0.146926,0.234206,1.018917,9.72754,-0.71215,8.143669565830647,-42.12981599906751,11.41526119749194,-0.002414,-0.128535,-0.027485,0.681993,0.726687,-0.081766,-0.011191,0.48486999999999997,0.465055,-0.565715,-0.47811200000000004
97,1917664096254545.0,-0.033554,-0.414963,0.024078,1.226902796426387,10.089109092740513,-0.5179070003272754,0.192776,0.165285,0.189415,1.020055,9.727508,-0.710966,8.43195283765806,-41.98618777732346,10.975621055669135,-0.0022,-0.128464,-0.027491,0.681977,0.726609,-0.082491,-0.011883,0.484438,0.464413,-0.566188,-0.47861399999999993
98,1917664101198393.0,-0.028229,-0.418152,0.023026,1.2215798146488321,10.094084888844074,-0.5375479074208996,0.169566,0.157993,0.186811,1.020949,9.727478,-0.710083,8.049129283083259,-41.98771613601141,10.975238965997148,-0.00198,-0.128398,-0.027493,0.68195,0.72654,-0.08322,-0.012585,0.48398699999999995,0.463781,-0.5666669999999999,-0.4791159999999999
99,1917664106142240.0,-0.022888,-0.420288,0.024078,1.201491057015114,10.085011500894142,-0.5242295204485494,0.150076,0.145445,0.210619,1.021742,9.727453,-0.709284,7.666305805942788,-41.98924449439021,10.974856876402447,-0.001755,-0.128337,-0.02749,0.681912,0.726479,-0.083954,-0.013291,0.483529,0.46315100000000003,-0.5671460000000002,-0.4796209999999999
100,1917664111086088.0,-0.01651,-0.425613,0.020889,1.1911877962649742,10.077077462922606,-0.5247719445878999,0.145174,0.13894,0.191246,1.022328,9.727413,-0.708983,7.283482251367988,-41.99077285307816,10.97447478673046,-0.001525,-0.128281,-0.027482,0.681861,0.726427,-0.084692,-0.014004,0.48304600000000003,0.4625300000000001,-0.567639,-0.4801230000000001
101,1917664115999418.0,-0.012238,-0.433075,0.019821,1.1764064292329235,10.076492142770178,-0.5394239996694706,0.121974,0.140806,0.17999,1.022649,9.727378,-0.70901,6.981304632913108,-41.99179582128899,10.986461119286496,-0.001291,-0.128231,-0.027471,0.6818,0.726384,-0.085433,-0.014725,0.48254300000000006,0.46191800000000005,-0.5681389999999998,-0.480628
102,1917664120912748.0,-0.011185,-0.4384,0.021957,1.1587914289715935,10.056908858204517,-0.5504519996867705,0.107794,0.103497,0.169497,1.022969,9.727329,-0.709223,7.746620885414539,-41.986055745010496,11.16707578296406,-0.001053,-0.128184,-0.027455,0.681732,0.726344,-0.086185,-0.015457,0.482027,0.46130100000000007,-0.568649,-0.4811329999999999
103,1917664125856596.0,-0.009048,-0.442657,0.021957,1.1412077220697319,10.013772184826475,-0.5980177783382499,0.087215,0.055231,0.09571999999999999,1.023139,9.72724,-0.710204,8.516690720800458,-41.98028001559088,11.34881229237682,-0.000809,-0.128142,-0.027437,0.681658,0.726305,-0.086951,-0.016199,0.4814800000000001,0.4606960000000001,-0.569183,-0.4816290000000001
104,1917664130800444.0,-0.006912,-0.450119,0.021957,1.1249785909648904,9.949053731196779,-0.6195812385225513,0.073963,-0.021708000000000005,0.114687,1.02324,9.727154,-0.711218,9.286760556186376,-41.97450428617127,11.530548801789582,-0.000561,-0.128103,-0.027416,0.681579,0.726269,-0.087727,-0.016951,0.48092099999999993,0.4600830000000001,-0.5697239999999999,-0.482134
105,1917664135744291.0,-0.011185,-0.459702,0.025146,1.1204033333468182,9.889363332983539,-0.6621051858398559,0.075547,-0.06774,0.028883000000000006,1.023505,9.72701,-0.712804,9.943022637328536,-41.96941203697702,11.69426064201532,-0.000309,-0.128065,-0.027394,0.681499,0.72623,-0.08852,-0.017716,0.4803390000000001,0.4594630000000002,-0.5702950000000001,-0.48263000000000006
106,1917664140688139.0,-0.010117,-0.470352,0.024078,1.143157037323963,9.826869369814364,-0.7037934445027436,0.113406,-0.140689,0.022843,1.024047,9.726823,-0.714587,9.560789867999828,-41.970556537034895,11.693497641976737,-5.3e-05,-0.128029,-0.027373,0.681419,0.726186,-0.089331,-0.018497,0.47974600000000006,0.45882500000000004,-0.5708890000000001,-0.483125
107,1917664145601469.0,-0.015442,-0.481003,0.028351,1.1416911437617665,9.793548857229823,-0.6903491437098669,0.081948,-0.142391,0.053439,1.024503,9.726677,-0.715911,9.180916592663326,-41.971693972180425,11.692739351879718,0.0002,-0.127982,-0.027358,0.681368,0.726118,-0.090111,-0.019243,0.479152,0.45816599999999996,-0.571477,-0.4836440000000001
108,1917664150545317.0,-0.018631,-0.490585,0.033676,1.131107388924781,9.792950148157063,-0.6788047222355946,0.086137,-0.139918,0.052833,1.025207,9.726512,-0.717146,8.798683823334619,-41.9728384722383,11.691976351841134,0.000458,-0.127935,-0.027345,0.681294,0.726059,-0.090967,-0.020051,0.47855100000000006,0.4574790000000001,-0.572082,-0.48417399999999994
109,1917664155489164.0,-0.022888,-0.498047,0.036865,1.152384071438295,9.783146631042385,-0.6854079251253123,0.118643,-0.156454,0.043741,1.026314,9.726311,-0.718298,8.469778545588113,-41.99085739242825,11.691496248529782,0.000722,-0.127889,-0.027337,0.681223,0.725992,-0.091845,-0.020867,0.4779530000000001,0.4567670000000001,-0.5727010000000001,-0.4847040000000001
110,1917664160433012.0,-0.026093,-0.505508,0.039001,1.1762832223478554,9.786841277925818,-0.7031453335082308,0.134204,-0.135448,0.021552,1.027603,9.726086,-0.719504,8.66348273571423,-42.174245912569965,11.693788536175289,0.000991,-0.127843,-0.027331,0.681157,0.725916,-0.09274,-0.021694,0.477348,0.45603899999999997,-0.5733349999999999,-0.48523599999999995
111,1917664165376860.0,-0.029282,-0.51297,0.04007,1.1837675741476223,9.780480182003204,-0.7113719440747256,0.133574,-0.159745,0.025552,1.028929,9.725864,-0.720581,8.857186925840344,-42.35763443271167,11.696080823820797,0.001266,-0.127798,-0.02733,0.681094,0.725833,-0.093649,-0.022531,0.476737,0.455296,-0.573973,-0.4857799999999999
112,1917664170290190.0,-0.033554,-0.523621,0.039001,1.2079644310080067,9.765069142404613,-0.6806791398633636,0.174004,-0.166053,0.07744999999999999,1.030501,9.725662,-0.721079,9.049695394642853,-42.53989090938083,11.69835896134794,0.001545,-0.127754,-0.027331,0.681035,0.725742,-0.094568,-0.023379,0.47613800000000006,0.45452100000000006,-0.5746090000000001,-0.48634100000000013
113,1917664175234037.0,-0.034607,-0.530014,0.041122,1.200833818252466,9.807783345542045,-0.6373116881042232,0.129129,-0.085035,0.114654,1.031719,9.725522,-0.721219,9.225323355042596,-42.706017733126636,11.71692833093501,0.001832,-0.12771,-0.027337,0.680977,0.725645,-0.095507,-0.024248,0.475526,0.4537339999999999,-0.575237,-0.4869319999999999
114,1917664180177885.0,-0.036743,-0.533203,0.045395,1.188062926002175,9.856718203896438,-0.6393757780109744,0.137863,-0.058713,0.083794,1.033177,9.725346,-0.721513,9.223804387167569,-42.702980046224525,11.895013378796879,0.002126,-0.127669,-0.027345,0.68092,0.725543,-0.096459,-0.02512,0.474912,0.4529370000000001,-0.5758779999999999,-0.48751600000000006
115,1917664185121733.0,-0.038879,-0.536392,0.044327,1.2315710931037929,9.856682481338018,-0.6474828332661118,0.204163,-0.077124,0.092875,1.035129,9.725127,-0.721657,9.222285419292541,-42.69994235932242,12.073098426658746,0.002426,-0.127629,-0.027355,0.680865,0.725435,-0.097419,-0.025996,0.47431,0.452117,-0.576528,-0.4880939999999999
116,1917664190065580.0,-0.038879,-0.539597,0.042191,1.259260092780986,9.86226990552418,-0.6419445187537155,0.199983,-0.052662,0.09597,1.036911,9.724929,-0.721782,9.220766451724757,-42.696904673034744,12.251183438499067,0.002732,-0.127592,-0.027366,0.68081,0.725325,-0.098381,-0.02688,0.4736990000000001,0.4512970000000001,-0.577176,-0.488681
117,1917664194978910.0,-0.035675,-0.543854,0.042191,1.2585799999827,9.90667271254526,-0.6259612864627452,0.19882,0.007226999999999997,0.121776,1.038617,9.724742,-0.721834,9.21951494752472,-42.706512645027686,12.416206106014208,0.003044,-0.127559,-0.027379,0.68075,0.725217,-0.099342,-0.027766,0.47308700000000004,0.450475,-0.57782,-0.48927099999999996
118,1917664199922758.0,-0.037811,-0.547058,0.039001,1.251275592493944,9.952938555824533,-0.6152705740785315,0.184184,0.042839,0.121174,1.040009,9.724596,-0.721795,9.2217969045813,-42.88943508034461,12.418107487663907,0.003365,-0.127527,-0.027392,0.680687,0.725108,-0.100311,-0.028667,0.4724589999999999,0.44964899999999997,-0.5784609999999999,-0.48987799999999987
119,1917664204866606.0,-0.035675,-0.549179,0.04007,1.230889184992338,9.959988444336881,-0.6096816480719067,0.157157,0.028323,0.131379,1.041237,9.724464,-0.7218,9.224078861637878,-43.072357515661544,12.420008869313605,0.003694,-0.1275,-0.027404,0.680622,0.724997,-0.101283,-0.029574,0.4718229999999999,0.44882599999999995,-0.5790999999999997,-0.49049099999999995
120,1917664209810453.0,-0.035675,-0.551315,0.036865,1.2285183136373354,9.944254964280852,-0.5974454455271371,0.170891,0.011536999999999999,0.145069,1.042431,9.724343,-0.721717,9.226360818232882,-43.255279913978455,12.421910250578707,0.004028,-0.127476,-0.027414,0.680553,0.724887,-0.102257,-0.030487,0.47118599999999994,0.447997,-0.579738,-0.491108
121,1917664214723783.0,-0.032486,-0.556641,0.035797,1.2095820012879248,9.957975570367347,-0.5946612855576564,0.125808,0.047706,0.139833,1.043157,9.724257,-0.721834,9.228775719705112,-43.41984015456437,12.380128128915091,0.004305,-0.127459,-0.027422,0.680479,0.72478,-0.103226,-0.031403,0.470528,0.44718299999999994,-0.580371,-0.491732
122,1917664219667631.0,-0.031418,-0.560898,0.033676,1.1888809444220374,9.962966055416551,-0.615181352089506,0.122183,0.02897,0.108608,1.043749,9.724158,-0.722301,9.234035057563219,-43.25379284786634,11.49767391900527,0.004589,-0.127446,-0.02743,0.680399,0.724674,-0.104207,-0.032336,0.46984700000000007,0.44636900000000007,-0.5810180000000001,-0.4923580000000002
123,1917664224580961.0,-0.03035,-0.566223,0.034729,1.1852178572644216,9.973190427649069,-0.6143232864454453,0.117375,0.06025799999999999,0.134111,1.044309,9.724075,-0.722613,9.239261929926279,-43.08877053864109,10.620667032228772,0.004874,-0.127435,-0.027436,0.680315,0.724569,-0.105188,-0.033272,0.4691670000000001,0.44554900000000003,-0.581661,-0.49299000000000004
124,1917664229524809.0,-0.03035,-0.574753,0.034729,1.1662393701460887,9.962740907093623,-0.6265749817820047,0.087099,0.018291,0.094739,1.044622,9.723989,-0.723328,9.244521267784386,-42.92272323194307,9.738212822318951,0.005166,-0.127427,-0.027441,0.680226,0.724462,-0.106188,-0.034225,0.4684539999999999,0.44472599999999984,-0.5823219999999998,-0.4936299999999999
125,1917664234468656.0,-0.03035,-0.581146,0.033676,1.1593309251253123,9.932873575722104,-0.6309423906316276,0.096933,-0.0025710000000000004,0.117481,1.044959,9.723909,-0.723903,9.249780604578676,-42.75667595883169,8.855758790904549,0.005462,-0.127421,-0.027446,0.680134,0.724354,-0.107199,-0.035191,0.46773799999999993,0.4438889999999998,-0.582985,-0.49427999999999994
126,1917664239412504.0,-0.029282,-0.587524,0.034729,1.1516385739171189,9.933226463084019,-0.6331912779302681,0.075791,0.013551999999999998,0.097963,1.045135,9.723829,-0.724715,9.242514779856819,-42.739242986122925,9.702374433557534,0.005762,-0.127418,-0.02745,0.680038,0.724244,-0.10822,-0.036169,0.467002,0.443052,-0.5836559999999998,-0.4949340000000001
127,1917664244356352.0,-0.029282,-0.594986,0.034729,1.1396230369966875,9.926014907223482,-0.6384274629181561,0.070288,-0.010833999999999998,0.104765,1.045259,9.723756,-0.725525,9.23501263063085,-42.72461406554202,10.58161412982055,0.006065,-0.127417,-0.027453,0.679937,0.724133,-0.109253,-0.037158,0.46625400000000006,0.4422050000000001,-0.5843340000000001,-0.49559600000000004
128,1917664249269682.0,-0.028229,-0.603516,0.033676,1.134251285870886,9.916586571376236,-0.6286948575084516,0.064912,-0.008885,0.118132,1.045258,9.723698,-0.726309,9.227556791604968,-42.71007544818205,11.455426345900001,0.006369,-0.127418,-0.027457,0.679833,0.724021,-0.110292,-0.038155,0.4654980000000001,0.44135300000000005,-0.585012,-0.49626600000000004
129,1917664254213530.0,-0.028229,-0.607773,0.035797,1.1219742015572083,9.916674851704755,-0.6239891482952447,0.047621,-0.009908,0.117773,1.045197,9.723642,-0.727131,9.220054642378999,-42.69544652760115,12.334666042163018,0.006679,-0.127422,-0.027461,0.679725,0.723907,-0.111349,-0.039168,0.464728,0.44049,-0.585698,-0.49694499999999997
130,1917664259157377.0,-0.025024,-0.610962,0.035797,1.118020722267149,9.912383703654319,-0.616936592493944,0.053656,-0.016267,0.131827,1.045178,9.723579,-0.728012,9.053171157576443,-42.70258837711776,11.93790115417562,0.00697,-0.127436,-0.027473,0.679657,0.723756,-0.112417,-0.040076,0.46395299999999995,0.439623,-0.586387,-0.49762399999999996
131,1917664264101225.0,-0.022888,-0.615234,0.036865,1.1181661851537508,9.894457184987887,-0.6281730557753799,0.049498,-0.042138,0.103734,1.045179,9.723486,-0.729263,8.870024257911163,-42.71195173211088,11.410931819890493,0.007263,-0.127452,-0.027486,0.679535,0.723646,-0.113489,-0.041098,0.46316300000000005,0.4387550000000001,-0.587091,-0.4982950000000001
132,1917664269045072.0,-0.021835,-0.62056,0.034729,1.1009180391555402,9.897325479551451,-0.607340263826328,0.022957,-0.017352,0.162628,1.044821,9.723461,-0.730097,8.686877395291297,-42.72131508521005,10.88396259219629,0.007559,-0.127472,-0.027499,0.679408,0.723536,-0.114567,-0.042129,0.46236700000000003,0.43788099999999996,-0.5877800000000001,-0.4989910000000001
133,1917664273958403.0,-0.019699,-0.626953,0.036865,1.0976521453621069,9.90606685662107,-0.6014184343131848,0.037501,-0.020053,0.130938,1.044661,9.723388,-0.731311,8.504861010548217,-42.73062064281451,10.360246093187325,0.007856,-0.127493,-0.027513,0.679276,0.723427,-0.115649,-0.043163,0.4615619999999999,0.43700399999999995,-0.5884849999999999,-0.499674
134,1917664278902250.0,-0.020767,-0.630142,0.039001,1.1192755742759486,9.893108333180955,-0.6388859447493127,0.064323,-0.039928,0.091774,1.044818,9.723256,-0.732835,8.779134251482652,-42.43342531658652,10.266381003325431,0.008157,-0.127518,-0.027527,0.679139,0.723316,-0.116748,-0.044209,0.460749,0.43611300000000003,-0.589211,-0.500346
135,1917664283846098.0,-0.020767,-0.634399,0.04007,1.1190671479956504,9.88478657407853,-0.6665293705049185,0.043982,-0.038871,0.075505,1.044839,9.723126,-0.734516,9.148987877356662,-42.07217288652937,10.263015275382621,0.00846,-0.127545,-0.027542,0.679001,0.723201,-0.117857,-0.045258,0.459922,0.435222,-0.589942,-0.501021
136,1917664288789946.0,-0.021835,-0.639725,0.041122,1.1152060195540032,9.878163739260135,-0.6862058544414906,0.052277,-0.050291,0.056382,1.044962,9.722976,-0.736336,9.518841503230671,-41.71092045647222,10.25964954743981,0.008767,-0.127574,-0.027558,0.678861,0.723082,-0.118975,-0.046314,0.459086,0.43432200000000004,-0.5906840000000001,-0.501694
137,1917664293703276.0,-0.025024,-0.641861,0.041122,1.1126185695493687,9.862119139516377,-0.6838467108413235,0.041524,-0.06874,0.077617,1.045004,9.722857,-0.73784,9.886412050629287,-41.35189801035885,10.256304595881177,0.009075,-0.127604,-0.027575,0.678723,0.722959,-0.120092,-0.047369,0.4582570000000001,0.4334180000000001,-0.5914119999999999,-0.502375
138,1917664298647123.0,-0.027161,-0.64505,0.043259,1.1251794446686063,9.863188463084018,-0.6908453890906436,0.071132,-0.052016,0.052314,1.045355,9.722696,-0.739465,9.848280074791331,-41.65478465574285,10.388900539726365,0.009388,-0.127636,-0.027594,0.678586,0.722828,-0.121222,-0.048435,0.4574240000000001,0.4324960000000001,-0.5921570000000003,-0.5030520000000003
139,1917664303621488.0,-0.03035,-0.64505,0.042191,1.1313682213355876,9.876979134467012,-0.7095672632764183,0.059605,-0.039595,0.041318,1.045542,9.722557,-0.741033,9.666236332985552,-42.193424509571415,10.570195316210606,0.009706,-0.12767,-0.027614,0.678451,0.72269,-0.122362,-0.049509,0.4565799999999999,0.4315699999999999,-0.5928989999999998,-0.5037379999999999
140,1917664308565336.0,-0.032486,-0.648254,0.042191,1.1320573519236432,9.873798259151576,-0.7107641295757879,0.068965,-0.053417,0.049911,1.045803,9.722421,-0.742442,9.485309402846926,-42.72875988686493,10.750377875820137,0.010025,-0.127704,-0.027634,0.67832,0.722546,-0.123496,-0.050582,0.45574299999999995,0.43063899999999994,-0.5936369999999999,-0.5044249999999999
141,1917664313509184.0,-0.035675,-0.649323,0.041122,1.1402562593129886,9.851181129414375,-0.7018600739978251,0.075917,-0.081382,0.061249,1.046087,9.722299,-0.743628,9.304382472708301,-43.26409526415844,10.930560435429669,0.010348,-0.12774,-0.027656,0.678191,0.722395,-0.124632,-0.05166,0.454909,0.429698,-0.594368,-0.505117
142,1917664318453031.0,-0.037811,-0.651443,0.045395,1.1443443331917431,9.838259851945459,-0.7102355723324366,0.077288,-0.081787,0.040352,1.046575,9.72215,-0.744894,9.481537248946191,-43.21457046691074,11.10606116277689,0.010675,-0.127777,-0.027679,0.678065,0.722238,-0.125773,-0.052738,0.45407500000000006,0.428749,-0.595108,-0.5058030000000001
143,1917664323396879.0,-0.041,-0.654648,0.044327,1.1413358888396246,9.84737103716255,-0.7176073703435057,0.070408,-0.064412,0.045005,1.046924,9.72203,-0.745977,9.853079340395187,-42.84755005266187,11.279020378182286,0.011006,-0.127815,-0.027704,0.677941,0.722074,-0.12692,-0.05382,0.45323600000000014,0.4277940000000001,-0.5958410000000002,-0.506501
144,1917664328340727.0,-0.043137,-0.655701,0.043259,1.128566203573613,9.844547388758919,-0.7270729445879,0.052947,-0.081015,0.026975,1.047087,9.721925,-0.747123,10.224621431844183,-42.48052963841301,11.451979593587682,0.01134,-0.127855,-0.02773,0.67782,0.721903,-0.128068,-0.054907,0.452387,0.426842,-0.5965719999999998,-0.5072009999999999
145,1917664333254057.0,-0.047394,-0.661041,0.045395,1.1269859997040703,9.825866572003102,-0.7242867148424795,0.062861,-0.099875,0.04689,1.047429,9.721825,-0.747933,10.593870022047419,-42.115774813438335,11.623871144830316,0.011676,-0.127895,-0.027758,0.677702,0.721726,-0.129215,-0.055993,0.451549,0.42587499999999995,-0.5972979999999999,-0.507907
146,1917664338197905.0,-0.04953,-0.66423,0.048584,1.129972518222348,9.840076801179528,-0.6978686442268541,0.060086,-0.059797,0.079029,1.047853,9.721745,-0.748378,10.545633868156017,-42.06544687351467,11.600771061481094,0.012017,-0.127936,-0.027788,0.677587,0.721539,-0.13038,-0.05709,0.4507099999999999,0.424885,-0.598021,-0.508629
147,1917664343141752.0,-0.053787,-0.665298,0.049652,1.122425925840762,9.869271426087332,-0.6874489630033124,0.04839,-0.037873,0.0739,1.048208,9.721684,-0.748654,10.208800310367106,-42.232844921780845,11.442880275635682,0.012362,-0.12798,-0.02782,0.677475,0.721343,-0.131551,-0.058189,0.44987099999999997,0.4238899999999999,-0.598739,-0.509358
148,1917664348085600.0,-0.055923,-0.668488,0.049652,1.110707740651007,9.884983259344544,-0.6770329998341372,0.036198,-0.026219,0.096026,1.048443,9.72166,-0.748658,9.871966684446322,-42.40024300390691,11.284989457853444,0.012702,-0.12802,-0.027854,0.677405,0.721103,-0.132741,-0.059273,0.4490299999999999,0.4228870000000001,-0.5994479999999999,-0.5100989999999999
149,1917664353029447.0,-0.055923,-0.673813,0.047516,1.103205796625179,9.878146149749377,-0.664160278249509,0.031965,-0.046146,0.101986,1.048539,9.721649,-0.748654,9.535133126657412,-42.56764105217309,11.127098672008032,0.013045,-0.128063,-0.027889,0.677295,0.720896,-0.13392,-0.060384,0.448177,0.42187800000000003,-0.600158,-0.5108490000000001
150,1917664357942778.0,-0.058044,-0.677017,0.048584,1.0901335679813895,9.878029716897094,-0.6397202790327537,0.012276000000000006,-0.030882,0.13984,1.048504,9.721685,-0.748242,9.266730641981187,-42.71779847244325,11.018019975976042,0.013388,-0.128107,-0.027925,0.677184,0.720686,-0.135098,-0.061497,0.447329,0.420865,-0.600851,-0.511612
151,1917664362886625.0,-0.058044,-0.680206,0.05072,1.0778898888396244,9.894746759393694,-0.6342995186619815,0.005733,-0.01278,0.120428,1.048491,9.721705,-0.747999,9.646497652750412,-42.710157181321954,11.376773811741256,0.013735,-0.128155,-0.027962,0.677072,0.72047,-0.136291,-0.06262,0.4464679999999999,0.41984299999999997,-0.601556,-0.5123760000000002
152,1917664367830473.0,-0.056976,-0.682343,0.05072,1.0654617776521447,9.917508815012113,-0.6060332958209881,-0.010857,0.013495,0.18315,1.048316,9.721779,-0.74729,10.026264740335732,-42.70251588865504,11.735527720072193,0.014084,-0.128205,-0.028,0.676956,0.720252,-0.137489,-0.063745,0.445609,0.418811,-0.602244,-0.513158
153,1917664372774321.0,-0.058044,-0.684464,0.05072,1.044575089633235,9.908114440006335,-0.5838190195540032,-0.03441500000000001,-0.022174,0.174082,1.047974,9.721866,-0.746637,10.406031827921051,-42.69487459598813,12.094281628403131,0.014434,-0.128258,-0.028039,0.676838,0.720032,-0.138691,-0.064874,0.44474,0.417781,-0.602932,-0.513944
154,1917664377687651.0,-0.052719,-0.685532,0.05072,1.0289111411881555,9.900687145258308,-0.5819201411881555,-0.043521,-0.008272,0.183142,1.047546,9.72195,-0.746156,10.730967363647842,-42.67206424997895,12.368186886364784,0.014783,-0.128315,-0.028078,0.676714,0.719815,-0.139888,-0.065997,0.443868,0.41676100000000005,-0.603617,-0.514721
155,1917664382631498.0,-0.052719,-0.687668,0.052841,1.0210267036543195,9.891125036835275,-0.5788447222355947,-0.049696,-0.034831,0.180885,1.047185,9.72202,-0.745727,10.543872249989478,-42.50008789585262,11.834493312498948,0.015135,-0.128375,-0.028118,0.676583,0.719598,-0.141097,-0.067128,0.44298600000000005,0.41573,-0.6043099999999999,-0.515501
156,1917664387575346.0,-0.051651,-0.692993,0.056046,1.0264621297372007,9.904049852170212,-0.5672365739126689,-0.035182,0.007701999999999994,0.201861,1.047042,9.722078,-0.745176,10.35677709848708,-42.32811150694035,11.300799630682041,0.015487,-0.128439,-0.028159,0.676448,0.719378,-0.142316,-0.06826,0.442106,0.41468,-0.605007,-0.5162840000000001
157,1917664392519194.0,-0.051651,-0.694061,0.057114,1.0129997735621672,9.906689033707961,-0.6061679918401601,-0.068896,-0.018963,0.118199,1.046691,9.722103,-0.745335,10.169681946984683,-42.15613511802808,10.767105948865135,0.015839,-0.128507,-0.0282,0.676309,0.719156,-0.143545,-0.069394,0.44120000000000004,0.413648,-0.6057199999999999,-0.5170509999999998
158,1917664397463041.0,-0.051651,-0.695129,0.056046,0.9960651851537506,9.866004518137288,-0.6339600184154125,-0.072615,-0.069169,0.13199,1.046299,9.722139,-0.745416,10.014390670842179,-42.00371414493653,10.273212399486905,0.016191,-0.128577,-0.028243,0.676168,0.718932,-0.144774,-0.070529,0.44029200000000007,0.4126130000000002,-0.6064290000000002,-0.51782
159,1917664402406889.0,-0.050598,-0.695129,0.056046,0.9770999812573121,9.839520981418724,-0.6225966480763567,-0.101815,-0.076796,0.14157,1.045676,9.722201,-0.745474,10.399765057802549,-42.18373489944641,10.455919738077231,0.016543,-0.12865,-0.028287,0.676024,0.718706,-0.146003,-0.071666,0.4393770000000001,0.411583,-0.6071310000000001,-0.518594
160,1917664407350737.0,-0.050598,-0.695129,0.057114,0.9987104703604298,9.819116551930309,-0.6219485377763512,-0.041803,-0.10513,0.135633,1.045617,9.722198,-0.745593,10.78513944476292,-42.363755653956275,10.638627076667555,0.016895,-0.128726,-0.028334,0.675877,0.71848,-0.147233,-0.072802,0.43847499999999995,0.41053699999999993,-0.6078439999999999,-0.519351
161,1917664412264067.0,-0.050598,-0.695129,0.057114,0.9865765675998625,9.79294442717924,-0.6354474296858893,-0.106929,-0.127886,0.116665,1.045045,9.722239,-0.745878,11.16813494476292,-42.54266515395628,10.820206576667555,0.017244,-0.128803,-0.028383,0.675729,0.718252,-0.148456,-0.073929,0.437559,0.409514,-0.608545,-0.5201089999999999
162,1917664417177397.0,-0.051651,-0.692993,0.056046,0.9190258591442056,9.771741714842479,-0.6487884283105348,-0.174434,-0.145712,0.107898,1.043893,9.72234,-0.746187,11.48589427463557,-42.709689814299324,10.977104233214021,0.017594,-0.128882,-0.028435,0.67558,0.718022,-0.149675,-0.075056,0.4366270000000001,0.40851100000000007,-0.609232,-0.5208760000000002
163,1917664422121244.0,-0.054855,-0.689789,0.059235,0.8922769625860185,9.753224631042384,-0.6478249821404263,-0.168534,-0.162204,0.11624,1.042969,9.722432,-0.74627,10.910519675486448,-42.71467961470466,10.796316036828127,0.017944,-0.128964,-0.028491,0.675434,0.717785,-0.150899,-0.076183,0.43570300000000006,0.407492,-0.609917,-0.521645
164,1917664427065092.0,-0.056976,-0.6866,0.060303,0.8987854445027436,9.729422277566988,-0.6590342409335804,-0.15978,-0.188654,0.090555,1.0422,9.7225,-0.746458,10.335144959955368,-42.719669416119295,10.61552780387391,0.018293,-0.129046,-0.028551,0.675292,0.717541,-0.15212,-0.077302,0.434784,0.4064749999999999,-0.6106039999999999,-0.522402
165,1917664431978422.0,-0.061249,-0.685532,0.063492,0.8822634295807528,9.782771710961406,-0.6539197151038094,-0.193396,-0.0736,0.118295,1.041212,9.722631,-0.746132,9.763321989050858,-42.72462841586697,10.435855563015991,0.018638,-0.129129,-0.028615,0.675155,0.717291,-0.153333,-0.078409,0.43387599999999993,0.40546,-0.6112639999999998,-0.5231729999999999
166,1917664436922270.0,-0.064438,-0.677017,0.086929,0.9395396490897374,9.785380499394602,-0.6696903892520563,-0.068843,-0.152912,0.06963,1.042468,9.722503,-0.746051,9.254146702760814,-42.71350371437786,10.255073732910665,0.018984,-0.129214,-0.028684,0.675027,0.717027,-0.154569,-0.079492,0.43302800000000014,0.40438700000000005,-0.6119720000000001,-0.5238790000000001
167,1917664441866117.0,-0.066574,-0.673813,0.063492,0.8676602208881059,9.758520980445592,-0.6662842995922001,-0.28548,-0.138497,0.110878,1.040833,9.722717,-0.74552,9.444794136948463,-42.53202567930394,10.074359626639787,0.019328,-0.1293,-0.028756,0.674904,0.716758,-0.155794,-0.080567,0.432111,0.40339499999999995,-0.6126039999999999,-0.524661
168,1917664446809965.0,-0.075089,-0.671692,0.057114,0.7959158891668999,9.788866852174662,-0.6700915002825734,-0.246574,-0.094592,0.072394,1.039178,9.722947,-0.744849,9.63544160969868,-42.35054760752217,9.89364548381557,0.019656,-0.129379,-0.028835,0.674907,0.716369,-0.156991,-0.081667,0.43119899999999994,0.4024029999999999,-0.6132279999999998,-0.5254429999999999
169,1917664451753813.0,-0.078293,-0.663162,0.06456,0.8251243335082309,9.824406629853911,-0.6717213331449511,-0.222036,-0.064072,0.096369,1.038091,9.723147,-0.743758,9.826089082448897,-42.16906953574039,9.712931340991355,0.019981,-0.129458,-0.028917,0.6748,0.716085,-0.158174,-0.082755,0.43032099999999995,0.4013969999999999,-0.613842,-0.5262149999999999
170,1917664456667143.0,-0.081482,-0.659973,0.063492,0.8316411430315082,9.841256285505757,-0.6654578569165922,-0.226761,-0.056398,0.087318,1.036917,9.723363,-0.742566,9.99921446715133,-42.03528064006247,9.57983566143651,0.0203,-0.129537,-0.029001,0.674701,0.715794,-0.159346,-0.083822,0.429451,0.40040099999999995,-0.6144419999999999,-0.526983
171,1917664461610990.0,-0.086807,-0.651443,0.06456,0.792998486424236,9.834028242152316,-0.6653588893594401,-0.287903,-0.073711,0.091682,1.035351,9.723645,-0.741046,10.00072415860473,-42.39267164890963,9.93722691761189,0.020617,-0.129617,-0.029089,0.674609,0.715494,-0.160513,-0.084887,0.428581,0.39941600000000005,-0.61502,-0.5277649999999999
172,1917664466554838.0,-0.091064,-0.64505,0.065628,0.7535163887229138,9.846654981746001,-0.6617776666531819,-0.308276,-0.03808,0.091618,1.033667,9.723961,-0.739263,10.002233850363497,-42.75006273004685,10.294618246077382,0.020931,-0.129697,-0.029179,0.674527,0.715186,-0.161669,-0.085939,0.427719,0.39843699999999993,-0.615581,-0.5285489999999999
173,1917664471498686.0,-0.094269,-0.636536,0.066696,0.7457964815038812,9.8699371297372,-0.6386823885975055,-0.303632,-0.023527,0.128135,1.032099,9.724301,-0.736968,10.003743542122265,-43.10745381118407,10.652009574542875,0.021239,-0.129776,-0.029272,0.674453,0.71487,-0.162813,-0.086978,0.42688200000000015,0.3974560000000001,-0.6161200000000001,-0.5293360000000001
174,1917664476442533.0,-0.099594,-0.629074,0.067764,0.7274837434245033,9.878803388512024,-0.6252079625392938,-0.335913,-0.018595,0.120134,1.030348,9.724678,-0.734438,10.013098177476573,-43.426380336168386,10.978620961666087,0.021543,-0.129856,-0.029367,0.674389,0.714547,-0.163945,-0.088003,0.42605200000000004,0.39648600000000006,-0.61664,-0.5301260000000001
175,1917664481386381.0,-0.103851,-0.622681,0.065628,0.7136437592682866,9.872259870258349,-0.627502,-0.332824,-0.03331,0.117296,1.028564,9.725074,-0.731697,10.19616233768965,-42.8935931049685,10.6236779719457,0.02184,-0.129935,-0.029463,0.674334,0.714216,-0.165064,-0.089018,0.4252330000000001,0.39552199999999993,-0.617146,-0.530915
176,1917664486299711.0,-0.109177,-0.618423,0.06456,0.7100501430661079,9.881280142074113,-0.609374572350931,-0.33805,-0.006392000000000002,0.145667,1.026684,9.725517,-0.728437,10.378096456679495,-42.36409472907359,10.27092601847082,0.022129,-0.130014,-0.029561,0.674287,0.713879,-0.166162,-0.090022,0.42443100000000006,0.39456200000000013,-0.617625,-0.5317120000000001
177,1917664491243559.0,-0.112381,-0.607773,0.062439,0.6653967031611814,9.882170629490632,-0.6057391853151635,-0.407872,-0.024827000000000002,0.12491,1.024199,9.726026,-0.725135,10.561160616892572,-41.83130749787371,9.915983028750434,0.022414,-0.130094,-0.029662,0.674249,0.713533,-0.167251,-0.091024,0.423621,0.393628,-0.618084,-0.532517
178,1917664496187406.0,-0.117706,-0.597122,0.062439,0.6290506489019584,9.858807039155542,-0.5787643565605893,-0.414849,-0.051433000000000006,0.18057,1.021732,9.726587,-0.721074,10.744224740076968,-41.29852037444155,9.56104011082493,0.022692,-0.130174,-0.029765,0.674222,0.713181,-0.168319,-0.092011,0.422839,0.39269499999999996,-0.618511,-0.5333319999999999
179,1917664501131254.0,-0.1241,-0.589661,0.062439,0.6270276296564943,9.844243462922606,-0.5354074071743306,-0.408749,-0.056472,0.206904,1.019359,9.727179,-0.716447,10.756514084529247,-41.438806073956385,9.543086865196463,0.022961,-0.130253,-0.02987,0.674206,0.71282,-0.169371,-0.092984,0.422081,0.391758,-0.618914,-0.534153
180,1917664506075102.0,-0.127289,-0.581146,0.061371,0.6295889074208997,9.842974296309677,-0.508061333149401,-0.404463,-0.054374,0.226306,1.017012,9.72779,-0.711454,10.758757821463378,-41.61868441752078,9.544956605127702,0.023222,-0.130334,-0.029979,0.674201,0.712452,-0.170408,-0.093946,0.4213409999999999,0.39082599999999995,-0.6192979999999999,-0.5349749999999999
181,1917664511018949.0,-0.128357,-0.57048,0.063492,0.6138617059637971,9.88153260593198,-0.47767616939723256,-0.430646,0.011240999999999994,0.255511,1.014552,9.728439,-0.706071,10.761001557943665,-41.79856272470091,9.546826344680744,0.023474,-0.130416,-0.03009,0.674203,0.71208,-0.171429,-0.094892,0.42061799999999994,0.389905,-0.6196559999999999,-0.535799
182,1917664515932280.0,-0.130493,-0.55983,0.07309,0.6324114379705821,9.916072001983176,-0.4645995719501845,-0.375198,0.022332,0.24694,1.013038,9.728992,-0.700607,10.76323144491315,-41.97733072923172,9.548684543226916,0.023716,-0.130498,-0.030203,0.674211,0.711707,-0.172436,-0.095804,0.41994100000000006,0.38897500000000007,-0.6200160000000002,-0.5365890000000001
183,1917664520876127.0,-0.128357,-0.543854,0.081604,0.6500012221504383,9.875595017926724,-0.432901018088137,-0.383638,-0.056226,0.298375,1.012015,9.729518,-0.694763,10.761610144957192,-41.847352590501494,9.54733348944603,0.02395,-0.130584,-0.030319,0.674226,0.711329,-0.173443,-0.096684,0.419302,0.388041,-0.6203610000000002,-0.5373659999999999
184,1917664525819975.0,-0.125168,-0.534271,0.076279,0.6352680554165501,9.855001148318475,-0.41976709274051305,-0.400696,-0.033257,0.272933,1.010623,9.730057,-0.689218,10.759349306357127,-41.666103221977124,9.54544949843785,0.024175,-0.130672,-0.030436,0.674241,0.710957,-0.174432,-0.097538,0.4186579999999999,0.387139,-0.620696,-0.5381309999999999
185,1917664530763822.0,-0.129425,-0.524673,0.069885,0.6376753689576153,9.8767118502039,-0.4075654472686958,-0.38114,-0.012297000000000002,0.30263,1.009115,9.730641,-0.683158,10.757088468214366,-41.48485389011436,9.543565507810747,0.02439,-0.130762,-0.030557,0.674258,0.710587,-0.175395,-0.098385,0.418033,0.3862459999999999,-0.6210039999999999,-0.538904
186,1917664535677153.0,-0.131546,-0.51297,0.069885,0.7014158742669432,9.866478994151828,-0.39842900187937713,-0.28226,-0.045534,0.285648,1.008488,9.731129,-0.677108,10.75484158514278,-41.30472332357971,9.541693146155572,0.024595,-0.130855,-0.03068,0.674283,0.710217,-0.176328,-0.099215,0.41745099999999996,0.38534799999999997,-0.6213129999999999,-0.53964
187,1917664540621000.0,-0.13475,-0.506577,0.059235,0.7060279624741699,9.870323352089505,-0.3800164441439138,-0.34578,-0.013851999999999996,0.319059,1.00685,9.731751,-0.670556,10.764930128560202,-41.9952532621799,9.407974343746911,0.024791,-0.130917,-0.030798,0.67437,0.709798,-0.177164,-0.100122,0.41685499999999986,0.384477,-0.6215839999999999,-0.5404099999999998
188,1917664545564848.0,-0.137939,-0.498047,0.051773,0.689240129773205,9.913390055941242,-0.3357837589050068,-0.324745,0.037119,0.359101,1.005029,9.732428,-0.663444,10.778058520965105,-42.90037510286278,9.241803877086834,0.024978,-0.130982,-0.030919,0.674461,0.70938,-0.177973,-0.101032,0.41627599999999987,0.3836139999999998,-0.6218249999999999,-0.5411909999999998
189,1917664550508696.0,-0.139008,-0.487396,0.048584,0.7114884845143873,9.956962893549496,-0.3094590727425424,-0.298458,0.073985,0.362489,1.003292,9.7331,-0.656173,10.79118691337001,-43.80549694354566,9.075633410426757,0.025156,-0.131051,-0.031042,0.674557,0.708962,-0.178758,-0.101934,0.415716,0.382762,-0.6220520000000002,-0.5419640000000001
190,1917664555452543.0,-0.139008,-0.477814,0.046448,0.743926037323963,9.976456111155926,-0.30109531476554297,-0.258686,0.07908,0.361635,1.001821,9.733742,-0.648852,10.804315303119415,-44.710618601148106,8.909462977378245,0.025325,-0.131125,-0.031165,0.674656,0.708547,-0.179522,-0.102821,0.4151770000000001,0.38191700000000006,-0.622272,-0.5427210000000001
191,1917664560365873.0,-0.137939,-0.469284,0.044327,0.7660544282755279,10.000898284600261,-0.2911094289369939,-0.247072,0.116194,0.366767,1.000352,9.73438,-0.641499,10.940384967853998,-44.55884099596557,8.733589522987595,0.025485,-0.131204,-0.031288,0.674704,0.708179,-0.180335,-0.103617,0.4146529999999999,0.38108799999999987,-0.6224779999999999,-0.5434659999999998
192,1917664565309721.0,-0.135818,-0.459702,0.045395,0.785193815007662,10.022128018581276,-0.2592665181732933,-0.220224,0.123326,0.405109,0.999203,9.734999,-0.633851,11.12240842201102,-44.02063573387053,8.552689759793386,0.025638,-0.131288,-0.031412,0.674752,0.707813,-0.181138,-0.104402,0.4141520000000001,0.38025500000000007,-0.622675,-0.544206
193,1917664570253569.0,-0.13475,-0.455444,0.044327,0.8123107257002492,10.03428931666514,-0.2561338739220692,-0.191203,0.13694,0.368969,0.998256,9.735571,-0.626519,11.304431876168042,-43.48243047177548,8.371789996599178,0.025782,-0.131378,-0.031534,0.674799,0.70745,-0.18193,-0.105175,0.41365599999999997,0.3794279999999999,-0.622879,-0.5449269999999998
194,1917664575197416.0,-0.133682,-0.450119,0.037933,0.8325381297372006,10.056125389090644,-0.2745559260066248,-0.175811,0.16228,0.350961,0.997138,9.736144,-0.619344,11.486455293506891,-42.94422531854408,8.190890269995851,0.02592,-0.131475,-0.031656,0.674845,0.707091,-0.182707,-0.105945,0.413157,0.37861799999999995,-0.6230779999999999,-0.5456399999999999
195,1917664580141264.0,-0.130493,-0.447983,0.037933,0.8448379260066248,10.059353444336882,-0.2750181295757879,-0.164126,0.146475,0.351055,0.996152,9.73669,-0.612317,11.332779941088845,-42.86159918531543,8.23069317199146,0.02605,-0.131577,-0.031776,0.674887,0.706738,-0.183473,-0.106713,0.41266100000000006,0.3778100000000001,-0.623281,-0.5463430000000001
196,1917664585085112.0,-0.126221,-0.444778,0.037933,0.8428999245207224,10.062514464960385,-0.2736740559252744,-0.174519,0.161083,0.341244,0.995093,9.737222,-0.605552,11.001754195484226,-43.01965647439732,8.387093761205788,0.026174,-0.131685,-0.031894,0.674922,0.70639,-0.184236,-0.107474,0.4121620000000001,0.37701600000000013,-0.6234850000000001,-0.5470360000000001
197,1917664590028959.0,-0.121964,-0.446915,0.037933,0.834274277728401,10.078331889005486,-0.2508937219083192,-0.180098,0.174996,0.376246,0.993987,9.737758,-0.598706,10.670728516836713,-43.17771373150871,8.543494318784722,0.026291,-0.131799,-0.03201,0.67495,0.706048,-0.184998,-0.108233,0.411659,0.376218,-0.623687,-0.5477330000000001
198,1917664594972807.0,-0.120895,-0.447983,0.036865,0.8342173889247808,10.091487074159238,-0.23958225934454297,-0.174303,0.184633,0.358171,0.99288,9.738277,-0.592058,10.339702771232094,-43.335771020590606,8.699894907999052,0.0264,-0.131919,-0.032124,0.674971,0.70571,-0.185762,-0.108993,0.411149,0.375423,-0.623895,-0.548425
199,1917664599886137.0,-0.114502,-0.443726,0.033676,0.8348888572125218,10.104533571011107,-0.26152928484429094,-0.175553,0.197165,0.322169,0.991622,9.738771,-0.586006,10.02509055450306,-43.4861560981027,8.840785733733663,0.026502,-0.132044,-0.032235,0.674985,0.705381,-0.186517,-0.109748,0.4106319999999999,0.37465499999999996,-0.6241089999999999,-0.549093
200,1917664604829985.0,-0.113449,-0.442657,0.033676,0.8307700363712712,10.128556781625523,-0.2788204454063809,-0.179778,0.226228,0.308444,0.990324,9.739258,-0.580076,10.026630816304683,-43.48923636936948,8.660589233786055,0.026598,-0.132176,-0.032343,0.674993,0.705056,-0.187269,-0.110504,0.41010799999999986,0.3738879999999999,-0.624326,-0.5497599999999999
201,1917664609773832.0,-0.109177,-0.439453,0.029404,0.8387863705049184,10.143190481499431,-0.28144324073171345,-0.16063,0.226549,0.303934,0.988998,9.739732,-0.57437,10.028171077794754,-43.4923166400132,8.48039277028708,0.026687,-0.132312,-0.032449,0.674995,0.704737,-0.188015,-0.111259,0.40958199999999995,0.373132,-0.624546,-0.550416
202,1917664614717680.0,-0.105988,-0.434128,0.028351,0.8673977410142868,10.14661981484625,-0.28883959269581105,-0.123218,0.228659,0.284727,0.987952,9.740156,-0.568945,10.029711339596377,-43.495396911279975,8.300196270339473,0.026768,-0.132455,-0.032551,0.674991,0.704425,-0.18875,-0.112009,0.40906500000000007,0.37238099999999996,-0.6247720000000001,-0.551051
203,1917664619631010.0,-0.104919,-0.424545,0.026215,0.84258828776797,10.16789442757987,-0.27076514407540303,-0.192307,0.260406,0.320916,0.986253,9.740661,-0.563232,10.030815720878673,-43.48434804421958,8.147603853332974,0.026843,-0.132601,-0.032648,0.674986,0.704121,-0.189466,-0.112743,0.40855099999999994,0.371664,-0.624966,-0.5516969999999999
204,1917664624574858.0,-0.10173,-0.414963,0.021957,0.8130087592682865,10.189044685270462,-0.2662103335082308,-0.190766,0.27127,0.294273,0.985895,9.740885,-0.559979,10.026599953167112,-43.296941660137364,8.32504585538237,0.026912,-0.132753,-0.032742,0.67498,0.703821,-0.190165,-0.113469,0.40803300000000003,0.370962,-0.62525,-0.55223
205,1917664629518705.0,-0.098526,-0.405365,0.021957,0.8286327757072579,10.193893,-0.2727112782495089,-0.164176,0.270763,0.297077,0.985602,9.741095,-0.556828,10.02238418630828,-43.10953531396214,8.502487821540292,0.026973,-0.132911,-0.032832,0.674971,0.70353,-0.190846,-0.114181,0.40752800000000006,0.37027499999999997,-0.6255289999999999,-0.552748
206,1917664634462553.0,-0.096405,-0.396851,0.017685,0.8374437962649742,10.196985537077394,-0.2725658148462493,-0.167905,0.275621,0.289758,0.985128,9.741319,-0.553746,10.01816841859672,-42.92212892987993,8.679929823589688,0.027027,-0.133073,-0.032916,0.67496,0.703246,-0.191509,-0.11488,0.40702799999999995,0.369609,-0.625798,-0.553259
207,1917664639375883.0,-0.092133,-0.387268,0.01236,0.8185641437271667,10.213640570697876,-0.29623871317212563,-0.197112,0.300183,0.248565,0.984393,9.741554,-0.550887,10.048119864384187,-42.78423401002128,8.810400844341617,0.027073,-0.133239,-0.032996,0.674946,0.702974,-0.192145,-0.115565,0.4065309999999999,0.368974,-0.6260559999999998,-0.553755
208,1917664644319731.0,-0.088943,-0.375549,0.009171,0.8181090001614127,10.241939203932443,-0.31162770369032383,-0.174758,0.330104,0.247537,0.983563,9.741796,-0.548106,10.43896655091147,-43.15635980493969,8.456995941032085,0.02711,-0.133394,-0.033061,0.674981,0.702671,-0.1927,-0.116276,0.406043,0.368358,-0.6263049999999999,-0.554241
209,1917664649263578.0,-0.085739,-0.364883,0.005981,0.8235017042222382,10.248067741682943,-0.2947142799910677,-0.180413,0.31752,0.272933,0.982608,9.742043,-0.545396,10.82981315838157,-43.52848552458762,8.103591109206324,0.02714,-0.133552,-0.033121,0.675013,0.702379,-0.193234,-0.116971,0.4055639999999999,0.367764,-0.626544,-0.5547169999999999
210,1917664654207426.0,-0.08255,-0.35318,-0.0014800000000000004,0.8107343887589181,10.24159051850057,-0.2906315556586691,-0.196475,0.314497,0.256545,0.981311,9.74232,-0.5428,11.220659844908853,-43.900611319506034,7.750186205896791,0.027162,-0.133715,-0.033175,0.675041,0.702098,-0.193743,-0.117652,0.4050889999999999,0.36720099999999994,-0.6267680000000001,-0.5551830000000001
211,1917664659151274.0,-0.077225,-0.340393,-0.004684,0.8019695185005687,10.24194548149943,-0.27416538859750544,-0.197465,0.316262,0.292965,0.979897,9.742598,-0.540353,11.53926898334879,-44.20407251326524,7.445635410364806,0.027177,-0.133881,-0.033223,0.675053,0.701839,-0.194238,-0.118312,0.40462499999999996,0.3666649999999999,-0.6269819999999998,-0.5556339999999999
212,1917664664064604.0,-0.072968,-0.329742,-0.006805,0.7937644289369938,10.246732285522649,-0.30924356880079296,-0.208555,0.322221,0.200394,0.978406,9.742868,-0.538181,11.152353888118753,-43.836901691338454,7.618779088084588,0.027185,-0.134051,-0.033265,0.675024,0.701621,-0.194751,-0.118926,0.4041699999999999,0.36615699999999995,-0.6271909999999999,-0.5560640000000001
213,1917664669008451.0,-0.067642,-0.319092,-0.011078,0.8144883297553505,10.262267572332437,-0.33148213188980163,-0.161459,0.343693,0.227094,0.976788,9.743141,-0.536165,10.763035639027459,-43.46745034846707,7.792998172018276,0.027185,-0.134225,-0.033302,0.67499,0.701414,-0.195245,-0.119528,0.40372,0.36567,-0.6273929999999999,-0.556483
214,1917664673952299.0,-0.064438,-0.307373,-0.014267,0.8307700369966876,10.270673277764406,-0.32301968523445707,-0.16511,0.341236,0.218592,0.975047,9.743421,-0.534255,10.373717311188125,-43.097998930866154,7.967217291191542,0.027178,-0.134402,-0.033332,0.674953,0.701218,-0.195715,-0.120116,0.40328100000000006,0.36520700000000006,-0.627585,-0.5568890000000001
215,1917664678896147.0,-0.062317,-0.298843,-0.019592,0.8463457780109744,10.252043221989027,-0.33407274084842414,-0.132051,0.309458,0.202373,0.973118,9.743713,-0.532425,10.090478579889963,-42.7456511872362,8.125234892753902,0.027165,-0.134583,-0.033355,0.674914,0.701032,-0.196162,-0.120692,0.40284599999999987,0.36476500000000006,-0.6277679999999999,-0.5572870000000001
216,1917664683839994.0,-0.058044,-0.286057,-0.024918,0.842767557862531,10.224348761237351,-0.3425952033748213,-0.158061,0.281666,0.195104,0.969655,9.74423,-0.529282,10.846819000159474,-42.560919366324356,8.124477735139275,0.027146,-0.134766,-0.033373,0.674873,0.700856,-0.196584,-0.121257,0.40241099999999996,0.36436699999999994,-0.6278709999999998,-0.557745
217,1917664688753324.0,-0.052719,-0.274338,-0.025986,0.8340342855230567,10.204064286201415,-0.33514228618411546,-0.148245,0.26244,0.208271,0.966285,9.744729,-0.526243,11.598490740228048,-42.37732784384382,8.123725251249162,0.027121,-0.134952,-0.033385,0.674828,0.700694,-0.196978,-0.121801,0.40199499999999994,0.3639899999999999,-0.6279669999999999,-0.5581829999999998
218,1917664693727690.0,-0.048462,-0.265823,-0.029175,0.8296109626481043,10.18584044089116,-0.32753016559276094,-0.15733,0.240993,0.206631,0.962707,9.745238,-0.523373,12.35950014667092,-42.19145564976865,8.122963419603714,0.027089,-0.135143,-0.033392,0.674778,0.700541,-0.197359,-0.122336,0.4015770000000001,0.363631,-0.6280579999999999,-0.5586150000000001
219,1917664698641020.0,-0.044205,-0.256241,-0.031311,0.7948761443540329,10.147635144388632,-0.34857171318942554,-0.204891,0.186486,0.166603,0.958735,9.745755,-0.521025,13.058528625981255,-42.02824038367586,8.132323797658913,0.027052,-0.135335,-0.033394,0.674725,0.700402,-0.197716,-0.122851,0.40115399999999996,0.363313,-0.628147,-0.5590260000000001
220,1917664703584867.0,-0.039932,-0.248779,-0.033447,0.7800298323443262,10.103406928893026,-0.3767578502038999,-0.188438,0.147262,0.143684,0.954833,9.746243,-0.519043,12.867289777597275,-42.21028140030646,8.31359826551937,0.027008,-0.13553,-0.033392,0.674667,0.700271,-0.19806,-0.123357,0.400734,0.36301,-0.628241,-0.559418
221,1917664708528715.0,-0.034607,-0.24025,-0.035568,0.7822930369966876,10.05745298109145,-0.3870564814994312,-0.189853,0.094145,0.139571,0.950885,9.746722,-0.517329,12.6760508905311,-42.39232245375879,8.494872770046511,0.026958,-0.135728,-0.033388,0.674604,0.700152,-0.198388,-0.123849,0.4003190000000001,0.3627280000000001,-0.6283350000000001,-0.5597930000000001
222,1917664713472563.0,-0.031418,-0.231735,-0.036636,0.7741560739978252,10.028743314729539,-0.3901356296564943,-0.195979,0.081817,0.134421,0.946868,9.747195,-0.515771,12.484812003464924,-42.57436350721112,8.676147274573651,0.026901,-0.135926,-0.033382,0.674536,0.700044,-0.198701,-0.124328,0.39990999999999993,0.36246400000000006,-0.628424,-0.560156
223,1917664718385893.0,-0.028229,-0.22641,-0.037704,0.7787147138331844,10.011583572055,-0.41184814183008267,-0.176505,0.059521,0.097967,0.943006,9.747628,-0.514648,12.32089043009277,-42.743482895870194,8.80804506079203,0.02684,-0.136125,-0.033374,0.674467,0.699943,-0.198999,-0.124793,0.3995060000000001,0.3622130000000001,-0.6285230000000003,-0.5604950000000001
224,1917664723329740.0,-0.023956,-0.220016,-0.037704,0.7616728736194708,10.005100388512023,-0.4238944633867108,-0.213591,0.063537,0.102361,0.93884,9.748083,-0.513659,12.514574732492747,-42.75177279994702,8.278616309439602,0.026771,-0.136327,-0.033366,0.674393,0.69985,-0.19929,-0.12525,0.3990979999999999,0.36198299999999994,-0.6286159999999998,-0.5608309999999999
225,1917664728273588.0,-0.019699,-0.208298,-0.037704,0.7437378518473869,10.009891388924782,-0.42228372223114463,-0.210028,0.067531,0.100344,0.934731,9.748522,-0.51283,12.708259074069563,-42.76006270570066,7.749187450998755,0.026698,-0.136529,-0.033356,0.674316,0.699767,-0.199568,-0.125689,0.3987040000000001,0.3617730000000001,-0.6287030000000001,-0.5611490000000001
226,1917664733217436.0,-0.014374,-0.197647,-0.037704,0.7269897034884568,9.988561444139464,-0.43069198158458755,-0.234426,0.026384000000000005,0.086081,0.930482,9.748954,-0.512341,12.901943415646379,-42.768352611454304,7.219758592557908,0.026617,-0.136731,-0.033346,0.674235,0.699695,-0.199828,-0.126106,0.398314,0.36159,-0.628789,-0.561448
227,1917664738161283.0,-0.011185,-0.185928,-0.039825,0.7034169089605726,9.9671047413049,-0.45442377532921224,-0.249634,0.018839,0.054814,0.926041,9.749383,-0.512208,13.081496544377021,-42.773078377891714,6.706594045293232,0.026531,-0.136934,-0.033336,0.674153,0.699633,-0.20007,-0.126504,0.39792700000000003,0.3614379999999999,-0.628871,-0.561728
228,1917664743074613.0,-0.009048,-0.17421,-0.040894,0.6696950012879249,9.957894571741772,-0.48170257071517686,-0.289056,0.007789000000000001,0.030388,0.921278,9.749828,-0.512325,12.515606229080243,-42.59004019278046,7.053285918115205,0.026432,-0.137131,-0.033325,0.674101,0.699559,-0.20028,-0.12686,0.3975429999999999,0.36132,-0.628943,-0.561995
229,1917664748048979.0,-0.004791,-0.166748,-0.038773,0.6365614038488523,9.947065349228223,-0.4998118165193313,-0.308646,-0.003150000000000001,0.017613,0.916455,9.750262,-0.512725,11.94268612313548,-42.40472820992583,7.404284581881315,0.026325,-0.137329,-0.033315,0.674046,0.699492,-0.200479,-0.127202,0.3971590000000001,0.36121800000000004,-0.6290180000000001,-0.562248
230,1917664752962309.0,-0.0015869999999999999,-0.156097,-0.038773,0.61659271477328,9.945234142718279,-0.5125711424915484,-0.320427,0.001431,0.005631000000000001,0.911587,9.750688,-0.513317,11.376795807838702,-42.22169002481457,7.750976454703287,0.026212,-0.137523,-0.033305,0.673989,0.699436,-0.200665,-0.127522,0.396788,0.36114100000000005,-0.629086,-0.5624830000000001
231,1917664757906156.0,0.0016020000000000003,-0.144379,-0.037704,0.6059718893594401,9.955191165582795,-0.5372046825482261,-0.321479,0.014916,-0.026924,0.906764,9.751086,-0.514272,10.807390712392431,-42.037514978085014,8.09982165243584,0.026091,-0.137716,-0.033296,0.673929,0.69939,-0.200836,-0.127824,0.3964250000000001,0.3610860000000001,-0.629156,-0.562696
232,1917664762850004.0,0.00267,-0.13266,-0.0345,0.6020485185005687,9.970336463084019,-0.5875641301004805,-0.319152,0.030667,-0.088296,0.90213,9.75144,-0.515719,10.9555312894045,-42.03222760772405,7.788261641004447,0.025962,-0.137906,-0.033287,0.673846,0.699368,-0.201,-0.12812,0.396074,0.361051,-0.6292350000000001,-0.5628769999999998
233,1917664767763334.0,0.00267,-0.123077,-0.0345,0.5764051441100028,9.970714428902394,-0.6218585710457063,-0.357236,0.018976,-0.099938,0.897228,9.751813,-0.517219,11.144705557004249,-42.037430757450664,7.440017182691962,0.025828,-0.138091,-0.033279,0.673769,0.69935,-0.201148,-0.128393,0.3957279999999999,0.361042,-0.6293009999999999,-0.5630529999999999
234,1917664772707182.0,0.005875,-0.115616,-0.031311,0.5624054445027437,9.971678351928093,-0.6429629631647251,-0.344716,0.028787,-0.125008,0.89258,9.752143,-0.519043,11.33505483631675,-42.042666225324716,7.089609685385804,0.025685,-0.138272,-0.033271,0.673693,0.699336,-0.201287,-0.12865,0.39539199999999997,0.36104099999999995,-0.6293749999999999,-0.563206
235,1917664777651030.0,0.007996,-0.106033,-0.032379,0.5543757197795562,9.958835551856884,-0.6547755741476222,-0.359584,-0.0012490000000000001,-0.123694,0.887805,9.752478,-0.520927,11.52540411562925,-42.04790169319877,6.739202188079647,0.025536,-0.138448,-0.033262,0.673617,0.699328,-0.201414,-0.128889,0.39506399999999997,0.3610609999999999,-0.6294399999999999,-0.5633509999999998
236,1917664782594877.0,0.009064,-0.096451,-0.031311,0.5593613335082308,9.942998462922606,-0.6856093522509187,-0.331658,-0.006696,-0.174618,0.883334,9.75276,-0.523237,11.22755516648693,-42.041916938730125,7.139598786412932,0.025379,-0.138618,-0.033254,0.673543,0.699326,-0.201527,-0.129112,0.39475,0.361093,-0.629515,-0.5634660000000001
237,1917664787508207.0,0.007996,-0.085785,-0.030243,0.569305,9.932150286149515,-0.7021420003132295,-0.327205,-0.021595999999999997,-0.161716,0.879,9.753038,-0.525344,10.851262426953472,-42.03412400391721,7.660990704398689,0.025217,-0.138781,-0.033247,0.673474,0.699327,-0.201624,-0.129314,0.39446,0.361135,-0.6295769999999999,-0.5635739999999999
238,1917664792452055.0,0.009064,-0.077271,-0.030243,0.5823657594296993,9.94566340766747,-0.7153947780109744,-0.300239,0.012898999999999997,-0.190455,0.87487,9.753283,-0.527687,10.472632433088414,-42.02628266511258,8.18562112632232,0.025047,-0.138939,-0.033241,0.67341,0.69933,-0.201707,-0.1295,0.394182,0.36118699999999987,-0.6296409999999999,-0.563663
239,1917664797395903.0,0.009064,-0.063416,-0.027054,0.5930812965170645,9.960449,-0.7238439804459968,-0.29448,0.012697,-0.179842,0.870976,9.753513,-0.529882,10.094002439223356,-42.01844132630794,8.710251548245955,0.024872,-0.139091,-0.033235,0.673351,0.699337,-0.201774,-0.129665,0.39393399999999995,0.36124999999999996,-0.6296939999999999,-0.563737
240,1917664802339750.0,0.010132,-0.053833,-0.025986,0.5883492591875802,9.942237647910494,-0.7185589444220373,-0.300103,-0.018952999999999998,-0.174649,0.867136,9.753736,-0.532057,10.153239670212491,-42.293555772225766,8.702410040273012,0.024691,-0.139236,-0.03323,0.673297,0.699348,-0.201827,-0.129805,0.3937010000000001,0.36132699999999995,-0.629738,-0.5638019999999999
241,1917664807283598.0,0.0112,-0.045319,-0.028122,0.5901169260021748,9.92289225918313,-0.7190020555779627,-0.286018,-0.028965,-0.175417,0.863336,9.753953,-0.534256,10.34666206214392,-42.655382565543626,8.53139161444264,0.024504,-0.139375,-0.033225,0.673246,0.699363,-0.201864,-0.129931,0.3934800000000001,0.36141600000000007,-0.629776,-0.563856
242,1917664812227446.0,0.012253,-0.036789,-0.025986,0.6016612237745221,9.927148131477976,-0.7223346300728967,-0.269815,-0.013974,-0.176755,0.859783,9.754146,-0.536473,10.54008445407535,-43.017209358861486,8.360373188612268,0.024312,-0.139508,-0.03322,0.673197,0.699383,-0.201887,-0.130042,0.39327800000000007,0.3615110000000001,-0.629812,-0.563897
243,1917664817171293.0,0.014389,-0.02507,-0.024918,0.6200707594296994,9.932492277764405,-0.7111514257600557,-0.243723,-0.015697,-0.152516,0.856527,9.754318,-0.538543,10.733506806882923,-43.37903607899207,8.189354797374065,0.024114,-0.139634,-0.033217,0.673151,0.699408,-0.201898,-0.130132,0.393105,0.36161200000000004,-0.6298370000000001,-0.563924
244,1917664822115141.0,0.015457,-0.012282999999999999,-0.023849,0.6256351295757879,9.913520647910495,-0.7079055000807064,-0.247623,-0.047085,-0.161122,0.853346,9.754478,-0.540695,11.181179941722062,-43.495945652541515,8.015227529813462,0.023911,-0.139755,-0.033215,0.673108,0.699438,-0.20189,-0.130199,0.39295100000000005,0.36173199999999994,-0.629855,-0.563934
245,1917664827028471.0,0.015457,-0.0005649999999999995,-0.022781,0.6236025713762356,9.891455286149515,-0.7176208568819925,-0.244402,-0.062032,-0.169124,0.851961,9.754545,-0.541651,11.745538933698446,-43.49706921656207,7.840714574616359,0.023705,-0.139869,-0.033214,0.673071,0.699473,-0.201865,-0.130243,0.39289099999999993,0.36179499999999987,-0.6298579999999999,-0.5639329999999998
246,1917664831972319.0,0.017578,0.005828999999999999,-0.022781,0.6364014285156883,9.879539221037787,-0.7080636637808573,-0.222069,-0.071574,-0.144758,0.850614,9.754608,-0.542658,12.313403309542217,-43.498199759337716,7.665117673019013,0.023493,-0.139979,-0.033214,0.673036,0.699513,-0.201826,-0.13027,0.39284099999999994,0.36186699999999994,-0.629857,-0.563922
247,1917664836916166.0,0.018646,0.016479,-0.02066,0.6494508704242121,9.88886033350823,-0.7201156484351865,-0.213644,-0.048205,-0.181998,0.849406,9.754654,-0.543715,12.881267570523157,-43.49933030188469,7.489520806939933,0.023276,-0.140082,-0.033216,0.673004,0.699557,-0.201776,-0.130281,0.39280899999999996,0.36195199999999994,-0.629851,-0.563897
248,1917664841860014.0,0.020782,0.029251,-0.017456,0.6514780925791004,9.899495759268287,-0.7391853889247809,-0.214398,-0.046959,-0.185661,0.848385,9.754681,-0.544826,12.885968474318974,-43.60137866697762,7.424240786244967,0.023055,-0.14018,-0.03322,0.672974,0.699606,-0.201712,-0.130266,0.392799,0.362052,-0.6298389999999999,-0.563854
249,1917664846803862.0,0.020782,0.038849,-0.016403,0.6459019804459968,9.897941758814138,-0.7072034926742272,-0.221797,-0.05051,-0.125383,0.847433,9.754707,-0.545823,12.550541060278476,-43.76437737925776,7.425587769950388,0.022828,-0.140254,-0.033224,0.672955,0.699656,-0.201625,-0.130233,0.39280600000000004,0.36216299999999996,-0.6298150000000001,-0.563803
250,1917664851717192.0,0.022919,0.0495,-0.014267,0.6614814305199467,9.874173712023065,-0.6593867119884657,-0.187493,-0.089307,-0.084861,0.846663,9.754718,-0.546827,12.217184214309992,-43.92636991280801,7.426926438827213,0.022597,-0.140323,-0.033229,0.67294,0.699709,-0.201524,-0.130181,0.39283400000000007,0.36228399999999994,-0.629786,-0.5637389999999999
251,1917664856661039.0,0.02504,0.059082,-0.012131,0.6603816132295357,9.884644237021089,-0.6486404991525829,-0.213723,-0.04195,-0.094536,0.845981,9.754717,-0.547907,11.881756868116929,-44.08936859211814,7.428273422260177,0.022361,-0.140387,-0.033236,0.672928,0.699767,-0.201409,-0.130108,0.392876,0.3624200000000001,-0.6297520000000001,-0.56366
252,1917664861604887.0,0.029297,0.069733,-0.008942,0.6698727410142868,9.922654778010974,-0.6566711481930674,-0.176741,-0.010765999999999998,-0.099266,0.845524,9.754686,-0.549151,11.591429525096212,-44.206452169196076,7.429173842420966,0.02212,-0.140447,-0.033245,0.672917,0.699832,-0.201281,-0.130014,0.392937,0.362568,-0.629717,-0.5635620000000001
253,1917664866548735.0,0.033569,0.078262,-0.011078,0.707069893549497,9.935229851704754,-0.6523487392601348,-0.138535,-0.011895,-0.085863,0.845035,9.75465,-0.55055,11.777874512227402,-43.838147020611125,7.4253534464739275,0.021874,-0.140503,-0.033255,0.672905,0.699906,-0.201138,-0.129901,0.39300599999999997,0.36273399999999995,-0.629678,-0.56345
254,1917664871462065.0,0.037827,0.08252,-0.007874,0.7374987157480333,9.933013856968929,-0.6513538575607871,-0.112289,-0.014692,-0.090787,0.843969,9.754617,-0.552778,11.963168588546353,-43.47211539186831,7.421556633542287,0.021626,-0.140556,-0.033266,0.67289,0.699987,-0.200986,-0.129775,0.393046,0.36293800000000004,-0.6296510000000001,-0.5633220000000001
255,1917664876405912.0,0.041016,0.089981,-0.007874,0.7544599250785876,9.934132203374821,-0.6678363314969092,-0.100535,-0.010344,-0.111562,0.843016,9.754556,-0.555305,12.14961353796502,-43.103810317781026,7.417736238368006,0.021374,-0.140605,-0.033277,0.672872,0.700076,-0.200827,-0.129635,0.39309400000000005,0.363157,-0.6296270000000002,-0.563174
256,1917664881349760.0,0.039963,0.098495,-0.004684,0.7635154445027436,9.930762407340193,-0.692548629822357,-0.092026,-0.019064,-0.13461,0.842316,9.754465,-0.557941,12.30338533077322,-42.751687911616585,7.414050000042088,0.021118,-0.14065,-0.033289,0.672857,0.700168,-0.200657,-0.12948,0.3931589999999999,0.36338299999999996,-0.629603,-0.563009
257,1917664886293608.0,0.039963,0.104889,-0.00148,0.7761070371581004,9.916630629495081,-0.7285941855125805,-0.075455,-0.036609,-0.175318,0.841936,9.754329,-0.560891,12.111754674347004,-42.57064026515024,7.411781999873738,0.02086,-0.140692,-0.033301,0.672849,0.700259,-0.200479,-0.129307,0.39323599999999975,0.3636139999999998,-0.6295889999999996,-0.5628219999999999
258,1917664891237455.0,0.038895,0.110214,-0.00041200000000000004,0.7984503867704643,9.899362964280852,-0.7836306987129659,-0.048408,-0.05281,-0.235342,0.841854,9.754141,-0.564268,11.920124056682226,-42.38959265530469,7.409514000164141,0.020601,-0.14073,-0.033314,0.672845,0.700349,-0.200294,-0.129121,0.3933199999999999,0.3638519999999999,-0.6295879999999999,-0.5626099999999999
259,1917664896181303.0,0.034622,0.114471,-0.000412,0.8137052963456806,9.885009166572475,-0.8020606850730443,-0.041771,-0.064741,-0.217331,0.841848,9.753966,-0.567279,11.728493400256012,-42.208545008838335,7.407245999995792,0.020282,-0.140769,-0.033331,0.672849,0.700437,-0.200101,-0.128928,0.39341899999999996,0.36408700000000005,-0.629574,-0.562404
260,1917664901094633.0,0.032501,0.119812,0.004912999999999999,0.8387387131548257,9.891285427979598,-0.8220261415168532,-0.0034280000000000005,-0.043902,-0.260159,0.842411,9.753731,-0.570499,11.546326,-42.036438,7.40509,0.019966,-0.140802,-0.033349,0.672862,0.700518,-0.199904,-0.128726,0.3935370000000001,0.364315,-0.629573,-0.5621759999999999
261,1917664906038481.0,0.02504,0.125137,0.007034,0.877745222513718,9.886256481302015,-0.8527749445878999,0.034486,-0.067192,-0.276287,0.843421,9.753469,-0.573485,11.546326,-42.036438,7.40509,0.019647,-0.140829,-0.033368,0.672887,0.700591,-0.199701,-0.12851,0.39368100000000006,0.364534,-0.6295670000000001,-0.561939
262,1917664910982328.0,0.021851,0.131516,0.004913,0.9149381638412354,9.870902408113157,-0.8365357255649295,0.069202,-0.075446,-0.231333,0.844641,9.75322,-0.575924,11.546326,-42.036438,7.40509,0.019331,-0.140849,-0.033389,0.672925,0.700656,-0.199486,-0.128288,0.39385100000000006,0.364746,-0.6295430000000002,-0.5617100000000002
263,1917664915926176.0,0.019714,0.135788,0.010239,0.9216436850730443,9.849552796067558,-0.8057168146488323,0.052891,-0.104996,-0.207047,0.84602,9.752974,-0.578057,11.546326,-42.036438,7.40509,0.019016,-0.140863,-0.033412,0.672956,0.700728,-0.199288,-0.12804,0.394037,0.364954,-0.629509,-0.561482
264,1917664920870024.0,0.015457,0.142181,0.011307,0.9217940741592379,9.859918555860537,-0.7928458888440745,0.062761,-0.063657,-0.199238,0.847521,9.752735,-0.579872,11.562410425749999,-42.09533226382609,7.420159557849897,0.018704,-0.140871,-0.033437,0.672996,0.700795,-0.199085,-0.127779,0.394242,0.36516099999999996,-0.6294619999999997,-0.5612559999999999
265,1917664925783354.0,0.014389,0.147507,0.009171,0.9348497138677841,9.888889999408141,-0.7629368585350464,0.075623,-0.04286,-0.150019,0.849024,9.752526,-0.581197,11.761609605971865,-42.82471416755543,7.606790005008119,0.018396,-0.140875,-0.033463,0.673043,0.700859,-0.198873,-0.127513,0.39446299999999995,0.36536700000000005,-0.629396,-0.5610400000000001
266,1917664930727201.0,0.013321,0.154953,0.013428,0.9310412050696553,9.913415960797735,-0.7252385579092556,0.056669,-0.015109999999999998,-0.119104,0.850586,9.752332,-0.582172,11.962046024763668,-43.55862630791779,7.79457962554894,0.018087,-0.140874,-0.033491,0.673095,0.700923,-0.19865,-0.127232,0.39470500000000003,0.365577,-0.6293140000000002,-0.560826
267,1917664935671049.0,0.014389,0.161346,0.014496,0.9212447962649741,9.92479842592147,-0.6863810922518249,0.050875,-0.015471,-0.072989,0.852174,9.752155,-0.582792,12.16248248409807,-44.29253859672976,7.982369284074275,0.01778,-0.140871,-0.033519,0.673151,0.700988,-0.19842,-0.126936,0.39496300000000006,0.3657900000000001,-0.6292150000000002,-0.5606160000000001
268,1917664940614897.0,0.017578,0.163483,0.014496,0.9228981111559255,9.932788129737201,-0.6329844995560139,0.0552,-0.0009890000000000003,-0.01345000000000001,0.853795,9.751997,-0.583059,12.326628714478312,-44.95853132409872,8.152771,0.017473,-0.140865,-0.033548,0.673206,0.701057,-0.198185,-0.12663,0.39523299999999995,0.36600000000000005,-0.6291039999999999,-0.560413
269,1917664945558744.0,0.019714,0.168808,0.015564,0.9137601497493753,9.959182589813965,-0.5847216327839433,0.033304,0.034174,0.026668,0.855282,9.751867,-0.583059,12.13513099352923,-44.958912824040844,8.152771,0.017174,-0.140837,-0.033583,0.673264,0.701128,-0.197916,-0.126345,0.395512,0.3662170000000001,-0.6289780000000001,-0.5602170000000002
270,1917664950502592.0,0.023972,0.173065,0.016632,0.9167758520043496,9.967693314729539,-0.5604241665724755,0.051897,0.022743,0.039342,0.856992,9.751711,-0.583146,11.943633233845592,-44.95929432406014,8.152771,0.016874,-0.140808,-0.033619,0.67332,0.701206,-0.197642,-0.126049,0.39580099999999996,0.36643500000000007,-0.628854,-0.560008
271,1917664955415922.0,0.028244,0.179459,0.014496,0.9288637141118142,9.973796428014198,-0.5335238582391169,0.056174,0.041704,0.077008,0.858635,9.751572,-0.583088,11.75331757535722,-44.95967346910865,8.152771,0.016574,-0.140781,-0.033653,0.67337,0.701292,-0.19736,-0.125746,0.3961,0.366662,-0.628719,-0.5597999999999999
272,1917664960359770.0,0.03569,0.181595,0.013428,0.9489552039324429,10.005713518827845,-0.50671305541655,0.084801,0.082465,0.095726,0.860444,9.751405,-0.583207,11.594308557130178,-44.92807715036687,8.167856061899409,0.016272,-0.140754,-0.033687,0.673411,0.70139,-0.197067,-0.125434,0.39640500000000006,0.3668930000000001,-0.6285889999999998,-0.5595780000000001
273,1917664965303617.0,0.038895,0.187988,0.01236,0.9509578718779121,10.001996688104224,-0.48678257572210465,0.063938,0.045144,0.116791,0.862078,9.751254,-0.583297,11.778752019911249,-44.558429572568045,8.342411793295868,0.015968,-0.140729,-0.03372,0.673445,0.701499,-0.196766,-0.125115,0.396715,0.36713999999999997,-0.628449,-0.559355
274,1917664970247465.0,0.04422,0.192245,0.013428,0.9551720371985546,9.998559426087331,-0.4878191853151634,0.083571,0.06632,0.099939,0.86392,9.751065,-0.583752,11.96319552,-44.188781920000004,8.51696756,0.015662,-0.140706,-0.033751,0.673475,0.701616,-0.196457,-0.124786,0.3970290000000001,0.367393,-0.6283200000000001,-0.559111
275,1917664975191313.0,0.050613,0.197571,0.01236,0.9725981297372006,10.00636109257465,-0.5261395374406738,0.095933,0.063593,0.04729,0.865828,9.750825,-0.584924,12.14763902008875,-43.81913426743196,8.691523326704132,0.015356,-0.140686,-0.033781,0.673496,0.701744,-0.19614,-0.124447,0.39733800000000014,0.36766600000000005,-0.6282070000000002,-0.5588380000000001
276,1917664980104643.0,0.051666,0.202896,0.010239,0.9588774295807527,9.986193000974287,-0.5340382864800451,0.059623,0.030026999999999998,0.074642,0.867371,9.750629,-0.585905,12.318344061697841,-43.46489339083727,8.841149089130736,0.01505,-0.140668,-0.033809,0.673506,0.701883,-0.19585,-0.124067,0.397646,0.36795399999999995,-0.6280789999999999,-0.5585739999999999
277,1917664985048490.0,0.053802,0.20929,0.002777,0.9659870340243134,9.962897112335392,-0.5681085863775719,0.096357,0.014512,-0.0026169999999999943,0.868889,9.750392,-0.587611,12.317225699894209,-43.28854041585008,8.664423489771565,0.014742,-0.140651,-0.033837,0.673514,0.70203,-0.195541,-0.123682,0.397949,0.36826799999999993,-0.627964,-0.55828
278,1917664989992338.0,0.053802,0.212479,0.001709,0.9692478516815242,9.948016833225658,-0.610003555663119,0.0723,0.0003020000000000002,-0.015135,0.87018,9.750167,-0.589413,12.316107337864361,-43.112187405191676,8.48769785466582,0.014434,-0.140636,-0.033864,0.673521,0.702181,-0.195217,-0.123296,0.39824700000000013,0.368595,-0.6278450000000002,-0.557985
279,1917664994905668.0,0.051666,0.212479,0.003845,0.9705068565860628,9.891959002540844,-0.6250127138331844,0.089878,-0.086192,-0.028859,0.871777,9.749913,-0.591255,12.314995879398788,-42.9369230083376,8.312063133546943,0.014127,-0.14062,-0.033891,0.67353,0.70233,-0.194893,-0.122909,0.39855199999999996,0.3689119999999999,-0.627734,-0.5576829999999999
280,1917664999880033.0,0.051666,0.206085,0.0006410000000000001,0.9673273137113984,9.859690263426788,-0.6378956498550067,0.068904,-0.076406,-0.037672,0.873032,9.749683,-0.593211,12.313870614030883,-42.75948141954609,8.134246620200903,0.013818,-0.140603,-0.033919,0.67354,0.702478,-0.194569,-0.122523,0.39883800000000014,0.36923500000000004,-0.6276230000000002,-0.5573890000000001
281,1917665004823881.0,0.048477,0.202896,0.001709,0.9287307959016944,9.877238907586761,-0.6462402963456805,0.01541,-0.051876,-0.042418,0.873872,9.749496,-0.595045,12.316399966555787,-42.930829695411155,8.13170933628444,0.013511,-0.140586,-0.033949,0.673549,0.702621,-0.194252,-0.122151,0.399108,0.36956199999999995,-0.6275050000000001,-0.5571120000000002
282,1917665009767729.0,0.046341,0.205032,0.002777,0.9179726668190447,9.890869537081842,-0.6607246668190445,0.034706,-0.045362,-0.060873,0.874924,9.749287,-0.596913,12.319021666811294,-43.1109805856956,8.13358190919421,0.013204,-0.140568,-0.033981,0.673564,0.702759,-0.193937,-0.121779,0.39938599999999996,0.369885,-0.6273909999999999,-0.5568269999999998
283,1917665014681059.0,0.043152,0.202896,0.005981,0.9126154292848231,9.888970143083409,-0.6687080000345997,0.009193,-0.052547,-0.057978,0.875918,9.749093,-0.598609,12.321627183509296,-43.290019418151864,8.135442922852954,0.012898,-0.140548,-0.034014,0.673583,0.702891,-0.193627,-0.121407,0.3996600000000001,0.3702020000000001,-0.6272730000000002,-0.5565530000000001
284,1917665019624906.0,0.04422,0.20076,0.004913,0.8880139463745541,9.884601666808257,-0.6688811480545414,-0.016056,-0.053741,-0.0574,0.876655,9.748919,-0.60037,12.324248883234505,-43.4701702719969,8.137315495383955,0.01259,-0.140526,-0.034049,0.673603,0.70302,-0.19332,-0.121036,0.399925,0.37052599999999997,-0.627153,-0.5562819999999999
285,1917665024538237.0,0.043152,0.199707,0.004913,0.8826904301367912,9.874261282791508,-0.664601141395754,-0.007859,-0.069757,-0.047395,0.877464,9.748745,-0.602001,12.150615588248787,-43.00714790818372,8.13182651962636,0.012283,-0.140502,-0.034085,0.673622,0.703148,-0.193016,-0.12067,0.40019000000000005,0.370842,-0.627033,-0.556016
286,1917665029482084.0,0.043152,0.199707,0.005981,0.8875693333468181,9.85367866649177,-0.6805972595148556,-0.0069,-0.092171,-0.079608,0.878355,9.748547,-0.603915,11.9549686843894,-42.464980094388146,8.12543035614666,0.011974,-0.140475,-0.034123,0.673642,0.703275,-0.192712,-0.120302,0.40045400000000003,0.371162,-0.626921,-0.555739
287,1917665034425932.0,0.045288,0.20076,0.008102,0.8759675739126689,9.841334796264974,-0.6978799629988625,-0.02921,-0.095377,-0.082371,0.879173,9.748346,-0.605951,11.759321740956194,-41.922812170927415,8.1190341913732,0.011663,-0.140446,-0.034164,0.67366,0.703404,-0.192411,-0.119929,0.40071399999999996,0.37148799999999993,-0.6268099999999998,-0.555458
288,1917665039369780.0,0.045288,0.202896,0.009171,0.8674741482952446,9.846763223774522,-0.7064465014050799,-0.028848,-0.081952,-0.091644,0.880044,9.748137,-0.608047,11.563674797522989,-41.38064424746668,8.112638026599736,0.011351,-0.140413,-0.034207,0.673678,0.703534,-0.192109,-0.119551,0.400977,0.371817,-0.6267010000000001,-0.555172
289,1917665044313627.0,0.042084,0.207153,0.010239,0.8834419631647251,9.841460055416551,-0.6975440924132377,-0.0030290000000000004,-0.099496,-0.066001,0.881206,9.747925,-0.609766,11.37969293682851,-41.59365560359504,7.968312868378097,0.011038,-0.140378,-0.034254,0.6737,0.703661,-0.191804,-0.119167,0.40126200000000006,0.372137,-0.626581,-0.554887
290,1917665049257475.0,0.042084,0.212479,0.009171,0.887703777683699,9.835274055577964,-0.7031587224285617,-0.016551,-0.095532,-0.09165,0.88222,9.747714,-0.611671,11.198044046325759,-41.95770275736364,7.79640189652273,0.010723,-0.1403,-0.034313,0.673744,0.703774,-0.191457,-0.118811,0.401546,0.372472,-0.626459,-0.554594
291,1917665054170805.0,0.042084,0.218872,0.010239,0.8881618568473927,9.833469714442344,-0.7213854282409283,-0.007497,-0.099906,-0.101082,0.883377,9.747487,-0.613619,11.017516460693296,-42.31950267557025,7.625552118101926,0.010409,-0.140219,-0.034374,0.673791,0.703887,-0.191102,-0.118448,0.40183899999999995,0.372812,-0.626336,-0.554292
292,1917665059114653.0,0.038895,0.226334,0.01236,0.8959597229635141,9.82463549859492,-0.7351918908127618,-0.002783,-0.110171,-0.114779,0.884713,9.747248,-0.615504,10.835867570190544,-42.683549829338844,7.45364114624656,0.010092,-0.140134,-0.034439,0.673844,0.703999,-0.190734,-0.11807,0.402151,0.3731579999999999,-0.626207,-0.5539789999999999
293,1917665064058500.0,0.03569,0.236984,0.015564,0.9215343706707811,9.836971444668606,-0.7387290369966876,0.035519,-0.079401,-0.107792,0.886529,9.746981,-0.617111,10.788756130824973,-42.76891807652099,7.67616426244115,0.009776,-0.140045,-0.034507,0.673909,0.704106,-0.190353,-0.117675,0.40249700000000005,0.373501,-0.626068,-0.553654
294,1917665069002348.0,0.031433,0.248703,0.015564,0.9283036294950815,9.852817148188617,-0.7360934259214684,0.015889,-0.073217,-0.105875,0.888217,9.746742,-0.618442,10.785755320299991,-42.762916209644,8.028010095433146,0.009459,-0.139953,-0.034578,0.673986,0.704208,-0.189955,-0.117262,0.40286000000000005,0.37385900000000005,-0.6259080000000001,-0.5533280000000002
295,1917665073946196.0,0.029297,0.257217,0.014496,0.912753016817268,9.831746865338065,-0.7499254845143873,0.0006069999999999999,-0.112823,-0.129041,0.889785,9.746511,-0.619842,10.782754509775009,-42.756914342767004,8.37985592842514,0.009143,-0.139857,-0.034651,0.674074,0.704308,-0.189536,-0.116836,0.403229,0.37423600000000007,-0.6257399999999999,-0.552995
296,1917665078890043.0,0.026108,0.263611,0.01236,0.9306031299390677,9.803071907259486,-0.7576256110752191,0.040145999999999994,-0.131326,-0.123116,0.891609,9.746268,-0.621017,10.779753699857006,-42.750912477104016,8.73170169024872,0.008827,-0.139757,-0.034727,0.67417,0.704405,-0.189101,-0.116402,0.40361899999999995,0.37461000000000005,-0.625564,-0.5526560000000001
297,1917665083803373.0,0.019714,0.272141,0.010239,0.9509251427182787,9.804576285209826,-0.7535358572471216,0.043214,-0.11292,-0.118786,0.893362,9.746058,-0.621801,10.527291726760975,-42.87136915230438,8.843479204634185,0.008514,-0.139653,-0.034805,0.674276,0.704496,-0.18865,-0.115965,0.40402399999999994,0.37498899999999996,-0.625369,-0.5523239999999999
298,1917665088747221.0,0.014389,0.276398,0.011307,0.938203370177643,9.802051814684837,-0.7416886294950815,0.015933999999999997,-0.129088,-0.100519,0.894978,9.745888,-0.622165,10.15687528762793,-43.051551711913916,8.844968433644208,0.0082,-0.139546,-0.034888,0.674397,0.70458,-0.188182,-0.115519,0.40444100000000005,0.3753720000000001,-0.6251540000000002,-0.5520020000000001
299,1917665093691069.0,0.009064,0.283859,0.01236,0.9413314845143873,9.785385535039616,-0.7251041091872382,0.038651,-0.143954,-0.085076,0.896867,9.745716,-0.622117,9.786458848494883,-43.23173427152344,8.846457662654233,0.007887,-0.139434,-0.034975,0.674529,0.704655,-0.187704,-0.115064,0.404884,0.37575100000000006,-0.6249240000000001,-0.5516789999999999
300,1917665098634916.0,0.005875,0.287048,0.014496,0.9425055369159813,9.775402425885463,-0.7181334259214684,0.020708,-0.148028,-0.084777,0.898724,9.74556,-0.621899,9.41604248428656,-43.411916794687166,8.847946891363026,0.007574,-0.13932,-0.035065,0.674649,0.70474,-0.187263,-0.114553,0.40533300000000005,0.376132,-0.6246860000000001,-0.551359
301,1917665103578764.0,0.0026699999999999996,0.288116,0.014496,0.9407735926598066,9.772760425921469,-0.7158127592322822,0.027835,-0.147311,-0.081663,0.900642,9.745408,-0.621494,9.56082183298816,-43.67925217139159,8.666325899276206,0.007262,-0.139202,-0.03516,0.674776,0.70482,-0.186819,-0.114038,0.40578900000000007,0.37650799999999995,-0.624443,-0.551043
302,1917665108522612.0,-0.0015870000000000003,0.290253,0.015564,0.9387526468901647,9.76873131400183,-0.6936674400063351,0.015854,-0.15254,-0.046761,0.902526,9.745291,-0.620587,10.078296175063407,-44.009634295287405,8.352242134298393,0.00695,-0.139081,-0.035259,0.674911,0.704893,-0.186373,-0.113521,0.406257,0.3768790000000001,-0.6241820000000001,-0.5507400000000001
303,1917665113435942.0,-0.002655,0.289185,0.017685,0.9221059987470822,9.77447514372673,-0.6540921403860233,-0.007387999999999999,-0.136369,-0.005652999999999998,0.904296,9.745211,-0.619293,10.592576187140756,-44.337976995305894,8.04009718466029,0.00664,-0.138959,-0.035363,0.675049,0.70496,-0.18593,-0.113005,0.40672500000000006,0.377241,-0.62391,-0.550454
304,1917665118379789.0,-0.004791,0.289185,0.018753,0.9145890553202799,9.783634388512024,-0.6166347433777785,-0.006165,-0.130411,0.026099000000000004,0.906133,9.745146,-0.617621,11.110050424545646,-44.66835905237479,7.726013483212702,0.006328,-0.138834,-0.035471,0.675191,0.705024,-0.185488,-0.112484,0.40720600000000007,0.377597,-0.623627,-0.550176
305,1917665123323637.0,-0.004791,0.289185,0.018753,0.9210222037710302,9.77639853691598,-0.601672851842937,0.0009969999999999996,-0.145279,0.025521,0.908039,9.745073,-0.615959,11.569545494731667,-44.91262739422896,7.465304832687457,0.006014,-0.138707,-0.035584,0.675334,0.705086,-0.185046,-0.111963,0.4076879999999999,0.37794999999999995,-0.6233449999999999,-0.5498959999999998
306,1917665128267485.0,-0.003723,0.291306,0.019821,0.9097311819297806,9.776392260739865,-0.611467187403251,-0.026985999999999996,-0.132112,0.006010999999999999,0.909759,9.745005,-0.61449,11.36450974207977,-44.16990054671355,7.816356343517814,0.005699,-0.13858,-0.035701,0.675477,0.705148,-0.184604,-0.111439,0.40816299999999994,0.37831599999999993,-0.623063,-0.5496109999999998
307,1917665133180815.0,-0.005844,0.29451,0.023026,0.8954357139724558,9.794146001287517,-0.5924374258571222,-0.03411,-0.108969,0.050637,0.911556,9.744961,-0.612533,11.160739659630403,-43.431758495885354,8.165240839907696,0.005384,-0.138452,-0.035823,0.675621,0.705209,-0.184163,-0.110911,0.408652,0.37867100000000004,-0.6227670000000001,-0.5493380000000002
308,1917665138124662.0,-0.006912,0.295578,0.026215,0.8927768148627981,9.824596737868506,-0.579642221234395,-0.036607,-0.071753,0.036081,0.91347,9.744903,-0.610608,10.955703948451415,-42.689031798602485,8.516292279730305,0.005065,-0.138323,-0.035949,0.67577,0.705265,-0.183721,-0.11037,0.4091480000000001,0.37902800000000003,-0.6224710000000001,-0.5490590000000001
309,1917665143068510.0,-0.009048,0.296646,0.029404,0.9193216670164617,9.84942546308402,-0.5887752963456805,0.007669999999999996,-0.055026,0.027451,0.915887,9.744799,-0.608633,10.770112190135254,-42.049055074637764,8.835192217839081,0.004744,-0.138193,-0.036078,0.675924,0.705318,-0.183283,-0.109824,0.4096600000000001,0.3793690000000001,-0.6221820000000001,-0.5487690000000001
310,1917665148012358.0,-0.012238,0.298767,0.030472,0.9546699631647251,9.865242889005486,-0.5699381108286501,0.031927,-0.039033,0.062652,0.918547,9.7447,-0.606191,10.775071440386034,-42.41602884319486,8.839006968031985,0.004421,-0.138063,-0.03621,0.676082,0.705365,-0.182845,-0.109272,0.41019199999999995,0.37969699999999995,-0.621882,-0.548485
311,1917665152956205.0,-0.013306,0.301971,0.034729,0.9723249250785876,9.895233941243326,-0.5621215544261382,0.039745,0.0017679999999999987,0.045859,0.92145,9.744576,-0.603797,10.780030689633698,-42.78300253752358,8.842821717453273,0.004112,-0.137892,-0.036354,0.676254,0.705405,-0.182355,-0.108766,0.410733,0.380022,-0.6215850000000002,-0.548191
312,1917665157869535.0,-0.017563,0.305161,0.04007,1.013167855298138,9.924538427962299,-0.5822575707151769,0.099485,0.02266,0.018902000000000002,0.92507,9.74438,-0.6014,10.784959326807547,-43.14771100474681,8.846612919481592,0.003805,-0.137722,-0.036497,0.676432,0.705439,-0.18187,-0.108252,0.4112970000000001,0.380327,-0.6213,-0.54788
313,1917665162813383.0,-0.021835,0.305161,0.04007,1.0389840925746505,9.940735407501606,-0.5749124071743306,0.09342,0.035059,0.047127,0.928646,9.744217,-0.598541,10.78919284086821,-43.45147234841343,8.83428263403558,0.003496,-0.137552,-0.036642,0.67662,0.705465,-0.181382,-0.107729,0.41187100000000004,0.38062700000000005,-0.621,-0.547581
314,1917665167757231.0,-0.026093,0.304092,0.041122,1.0761123708681983,9.978046259676267,-0.554784740651007,0.155636,0.09008,0.055934,0.932731,9.74402,-0.595373,10.78575428420674,-43.08698784616194,8.651276203565857,0.003187,-0.137382,-0.036787,0.676814,0.705482,-0.180895,-0.107208,0.412465,0.38090300000000005,-0.6206999999999999,-0.547282
315,1917665172701078.0,-0.03035,0.303024,0.042191,1.1291534225363367,10.02786732975535,-0.5400643902068571,0.194123,0.134544,0.069196,0.93714,9.743811,-0.591866,10.782315728240794,-42.7225034176353,8.468269810113137,0.002879,-0.137214,-0.036931,0.677016,0.705492,-0.180411,-0.106689,0.4130730000000001,0.38116,-0.620398,-0.5469860000000001
316,1917665177644926.0,-0.033554,0.307297,0.039001,1.1736193336740937,10.062360389086193,-0.5215842961482634,0.234813,0.159623,0.085146,0.941716,9.743602,-0.588033,10.778877171579326,-42.3580189153838,8.285263379643414,0.002573,-0.137047,-0.037072,0.677224,0.705496,-0.17992,-0.106171,0.41369899999999993,0.3814119999999999,-0.6200849999999999,-0.546691
317,1917665182588774.0,-0.035675,0.309418,0.036865,1.1940269074208996,10.094539741014287,-0.4904892034077504,0.231945,0.194572,0.120422,0.946138,9.743429,-0.583775,10.775966977215719,-42.04411665893442,8.119376977190464,0.00227,-0.136884,-0.03721,0.677436,0.705497,-0.179419,-0.105654,0.41433299999999995,0.3816639999999999,-0.6197549999999997,-0.5464099999999998
318,1917665187502104.0,-0.037811,0.30835,0.034729,1.2242042842178318,10.146006855315438,-0.46716757175907175,0.278483,0.255332,0.127416,0.950764,9.743243,-0.579344,10.778220731013098,-42.22479779911201,8.121255064325387,0.001972,-0.136725,-0.037343,0.677651,0.705495,-0.178915,-0.105143,0.414971,0.381902,-0.619427,-0.546132
319,1917665192445951.0,-0.038879,0.311554,0.032608,1.2785674400178646,10.188062386817188,-0.43411585571317235,0.329484,0.279364,0.171663,0.955703,9.743051,-0.574443,10.780488483016306,-42.40660116115438,8.123144816376994,0.001675,-0.13657,-0.03747,0.677867,0.705492,-0.178412,-0.104622,0.41563600000000006,0.38212899999999994,-0.619085,-0.545855
320,1917665197389799.0,-0.038879,0.315811,0.029404,1.3104369815845875,10.204772166738339,-0.39018762932921885,0.338054,0.286552,0.206599,0.960557,9.74288,-0.569224,10.782756235478216,-42.5884045599704,8.125034568810845,0.001382,-0.13642,-0.037591,0.678079,0.705492,-0.177941,-0.104053,0.41631099999999993,0.382358,-0.6187279999999998,-0.545584
321,1917665202333647.0,-0.037811,0.31369,0.028351,1.3376028891669,10.229467166935756,-0.3212243326562629,0.369769,0.319813,0.291156,0.96558,9.742723,-0.563349,10.794586236179828,-42.78823405961654,8.153930273489287,0.001093,-0.136278,-0.037704,0.678289,0.705494,-0.177464,-0.103486,0.41700300000000007,0.38256700000000005,-0.6183570000000002,-0.545331
322,1917665207277494.0,-0.034607,0.314743,0.023026,1.3654358502039001,10.24785853661329,-0.2552421889516403,0.38546,0.322503,0.33301,0.970465,9.742588,-0.557272,10.990489191910056,-43.335065354331775,8.702689645910123,0.000809,-0.136145,-0.03781,0.678494,0.7055,-0.176983,-0.102924,0.417697,0.38277800000000006,-0.617975,-0.5450839999999999
323,1917665212190824.0,-0.031418,0.320068,0.019821,1.3941955704192472,10.265542142074112,-0.2368971427528784,0.417793,0.349007,0.325927,0.972756,9.742558,-0.553815,11.185182892883814,-43.878521210725225,9.248061678518832,0.00053,-0.136023,-0.037906,0.678692,0.705513,-0.176494,-0.102366,0.4182620000000001,0.383123,-0.61762,-0.544812
324,1917665217134672.0,-0.027161,0.324341,0.01236,1.4338104262487439,10.29289514835448,-0.2147304811721558,0.458801,0.376063,0.363838,0.974752,9.742547,-0.550471,11.381085888239653,-44.42535261604891,9.796821161938123,0.000255,-0.135912,-0.037994,0.678885,0.705536,-0.175985,-0.101803,0.41882500000000006,0.3834880000000001,-0.6172550000000002,-0.5445360000000002
325,1917665222078520.0,-0.021835,0.325394,0.007034,1.449763796264974,10.293974629490632,-0.17137266633035644,0.452808,0.357037,0.40555,0.976484,9.742552,-0.547326,11.543538381451848,-44.89401217596838,10.267111330664456,-1.5e-05,-0.135813,-0.038072,0.679068,0.70557,-0.175461,-0.101244,0.41937800000000003,0.38386700000000007,-0.616889,-0.544258
326,1917665227022367.0,-0.012238000000000002,0.330734,0.002777,1.4548506472071243,10.282629278249509,-0.16221160974641813,0.463145,0.350582,0.38549,0.978034,9.742546,-0.54464,11.352371207394198,-44.53628346687747,9.907868554354033,-0.00028,-0.135728,-0.03814,0.679239,0.705619,-0.174926,-0.100685,0.4199240000000001,0.38427,-0.616527,-0.543963
327,1917665231966215.0,-0.0037230000000000006,0.334991,-0.002548,1.467505407506056,10.253278944094761,-0.1805945186619815,0.474926,0.303503,0.36405,0.979354,9.74254,-0.542371,11.161203994668853,-44.178554685428196,9.54862570537899,-0.00054,-0.135656,-0.038199,0.679394,0.705686,-0.174376,-0.100121,0.4204600000000001,0.38469500000000006,-0.6161680000000002,-0.5436540000000002
328,1917665236879545.0,0.00267,0.339249,-0.007874,1.4755117141637137,10.220398000661467,-0.17541957210690104,0.477988,0.28037,0.385365,0.98043,9.742542,-0.540372,10.971216842697388,-43.82303413670619,9.191600435355609,-0.000792,-0.135597,-0.038249,0.679535,0.705768,-0.173815,-0.09956,0.420988,0.385137,-0.615809,-0.54334
329,1917665241823393.0,0.014389,0.344574,-0.011078,1.4694090184154123,10.193811555335843,-0.19462529667740594,0.463251,0.250713,0.333079,0.981351,9.742528,-0.538967,10.77998329469513,-43.46519680338798,8.849894545146459,-0.001039,-0.135552,-0.038291,0.679662,0.705868,-0.173238,-0.09899,0.42150900000000013,0.38560700000000003,-0.615457,-0.543002
330,1917665246767240.0,0.019714,0.348831,-0.014267,1.4604544633867107,10.146955930634585,-0.2183516293475506,0.457047,0.190598,0.328324,0.982127,9.742514,-0.537806,10.587472833521584,-43.105269922619364,8.84577459123738,-0.001273,-0.135488,-0.038325,0.679786,0.70598,-0.172586,-0.098471,0.422026,0.38609299999999996,-0.6151039999999999,-0.5426539999999999
331,1917665251711088.0,0.02504,0.34671,-0.019592,1.4310137589050067,10.107032944256176,-0.25080953744067375,0.40927,0.16523,0.273617,0.982584,9.742514,-0.53698,10.394962333408634,-42.74534296904774,8.841654636494951,-0.0015,-0.135435,-0.038354,0.6799,0.706104,-0.171926,-0.097955,0.4225249999999998,0.38659299999999985,-0.6147549999999998,-0.5423049999999999
332,1917665256654936.0,0.032501,0.347778,-0.02066,1.3871608700609324,10.083609814648833,-0.2785670185812752,0.367578,0.14288,0.264782,0.982943,9.742502,-0.53652,10.202451833295683,-42.385416015476125,8.837534681752524,-0.001721,-0.135394,-0.038378,0.680001,0.706238,-0.171263,-0.097443,0.42301399999999995,0.387105,-0.614414,-0.541945
333,1917665261568266.0,0.036758,0.345642,-0.021729,1.3517805723336311,10.039635858900176,-0.2947869993562411,0.33616,0.082329,0.24243,0.983214,9.742487,-0.536306,10.01112968594812,-42.02771086378213,8.833440159179295,-0.001935,-0.135362,-0.038397,0.68009,0.706382,-0.170605,-0.096934,0.4234900000000001,0.387618,-0.614081,-0.541583
334,1917665266512113.0,0.042084,0.340317,-0.021729,1.332255500847417,10.004106353170922,-0.3393232174199565,0.325128,0.065483,0.181533,0.983458,9.742455,-0.53645,10.188489995525133,-42.01914278299828,8.663441163309908,-0.002146,-0.135339,-0.038413,0.680169,0.706533,-0.169949,-0.096426,0.423954,0.38813499999999995,-0.6137609999999999,-0.541213
335,1917665271455961.0,0.046341,0.332855,-0.022781,1.2977703699802259,9.983219518339157,-0.3807955742759486,0.272926,0.041504,0.155017,0.983572,9.742419,-0.53687,10.377629677594696,-42.02176448325379,8.48815935531818,-0.002351,-0.135324,-0.038428,0.680236,0.706692,-0.169305,-0.095926,0.4243970000000001,0.38865,-0.6134530000000001,-0.5408460000000002
336,1917665276399809.0,0.049545,0.32753,-0.022781,1.259444888678212,9.97680629634568,-0.43452944499588175,0.24473,0.048058,0.082115,0.983637,9.742375,-0.537558,10.56676935966426,-42.02438618350929,8.312877547326451,-0.002552,-0.135314,-0.03844,0.680282,0.706858,-0.168732,-0.095381,0.4248269999999999,0.38916300000000004,-0.613156,-0.540476
337,1917665281343656.0,0.050613,0.319016,-0.02066,1.230972705963797,9.977897518753714,-0.4834092013019416,0.215877,0.045045,0.052421,0.983747,9.742319,-0.538376,10.755909003476239,-42.0270078832345,8.137595774789252,-0.002748,-0.13531,-0.038452,0.680322,0.707025,-0.168173,-0.094845,0.4252429999999999,0.389665,-0.6128710000000002,-0.54011
338,1917665286287504.0,0.052734,0.30835,-0.02066,1.2238855926598067,9.966655203573612,-0.5060320371625503,0.224745,0.027686,0.036681,0.983844,9.742254,-0.539368,10.776419485061766,-42.18394812728651,8.276198369817395,-0.00294,-0.135308,-0.038462,0.680355,0.707192,-0.167632,-0.094323,0.42563999999999996,0.39015400000000006,-0.6126009999999998,-0.53975
339,1917665291231352.0,0.054871,0.298767,-0.018524,1.2204977776836992,9.9675021297372,-0.5629930376872428,0.212018,0.04205,-0.048837,0.984001,9.74217,-0.540613,10.77715964080866,-42.35898089555759,8.45160121596192,-0.003128,-0.135309,-0.038471,0.680379,0.707359,-0.167109,-0.093816,0.4260209999999999,0.390632,-0.612348,-0.539391
