,time,acce_x,acce_y,acce_z,acce_glob_x,acce_glob_y,acce_glob_z,gyro_x,gyro_y,gyro_z,gyro_glob_x,gyro_glob_y,gyro_glob_z,ori_w,ori_x,ori_y,ori_z,pos_x,pos_y
0,85883617733740,0.102432,8.154037,5.194,4.638929,8.11919,-2.456727,0.005432,0.063583,-0.088852,0.040771,-0.043905,-0.091527,0.848826,0.439262,0.13795,0.259832,0.015975,0.011424
1,85883622677588,0.008469,8.153427,5.258057,4.558151,8.203188,-2.46101,-0.013748,0.077438,-0.082458,0.032713,-0.02589,-0.10604,0.848856,0.439178,0.138196,0.259746,0.016328,0.011472
2,85883627621435,-0.040024,8.130081,5.340057,4.502335,8.276359,-2.418045,-0.023331,0.081696,-0.074997,0.027185,-0.014669,-0.109036,0.848893,0.439068,0.138437,0.259684,0.016699,0.011519
3,85883632565283,-0.120224,8.117523,5.41188,4.426493,8.356464,-2.402646,-0.028671,0.080627,-0.069672,0.022178,-0.009105,-0.107713,0.848934,0.438945,0.138671,0.259631,0.017072,0.011561
4,85883637509131,-0.226166,8.056473,5.501663,4.302067,8.436072,-2.356096,-0.030792,0.077438,-0.063278,0.018624,-0.004713,-0.102858,0.848979,0.438815,0.138892,0.259588,0.017441,0.011598
5,85883642452978,-0.292007,8.030731,5.517227,4.231289,8.459025,-2.357703,-0.033997,0.060394,-0.054764,0.006346,-0.004901,-0.087966,0.849028,0.438689,0.13907,0.259543,0.017816,0.011628
6,85883647396826,-0.363831,8.004395,5.554932,4.155035,8.501575,-2.34923,-0.037186,0.038025,-0.047302,-0.008924,-0.008523,-0.070099,0.849086,0.43857,0.139193,0.259489,0.018192,0.01165
7,85883652310156,-0.400345,7.955917,5.628555,4.095085,8.551447,-2.28921,-0.038254,0.009262,-0.040909,-0.026042,-0.016782,-0.04757,0.849153,0.438464,0.139248,0.259418,0.018575,0.011664
8,85883657254004,-0.365631,7.999008,5.786575,4.144719,8.691441,-2.209617,-0.035049,-0.018433,-0.034515,-0.03903,-0.025901,-0.023775,0.849225,0.43838,0.139238,0.259331,0.01896,0.011669
9,85883662197851,-0.347076,8.039108,5.800934,4.180662,8.717625,-2.2189,-0.029724,-0.033356,-0.02919,-0.043067,-0.030433,-0.008198,0.849292,0.438319,0.139192,0.259237,0.019228,0.011666
10,85883667141699,-0.315948,8.00798,5.816498,4.187125,8.706271,-2.174399,-0.02121,-0.046143,-0.022797,-0.043271,-0.034084,0.008041,0.849351,0.438286,0.139116,0.259142,0.019497,0.011657
11,85883672055029,-0.20462,8.028931,5.796143,4.289766,8.664882,-2.149077,-0.011627,-0.051468,-0.017471,-0.03838,-0.035354,0.019143,0.849396,0.438281,0.139025,0.259051,0.019768,0.011643
12,85883677029394,-0.135193,8.103745,5.807526,4.387848,8.688506,-2.161692,-0.002029,-0.054657,-0.01535,-0.032242,-0.038215,0.026967,0.849429,0.438303,0.138926,0.258959,0.020038,0.011626
13,85883681973242,-0.100479,8.112137,5.781784,4.420412,8.660719,-2.167436,0.004364,-0.053589,-0.012146,-0.026372,-0.037119,0.031065,0.849452,0.43834,0.138829,0.258874,0.02031,0.011606
14,85883686917090,-0.06636,8.091187,5.696182,4.436838,8.569932,-2.188345,0.007553,-0.048264,-0.006821,-0.020782,-0.03122,0.032038,0.849464,0.438385,0.138739,0.258805,0.020582,0.011586
15,85883691860937,-0.023849,8.111526,5.700974,4.482935,8.569966,-2.181166,0.009689,-0.049332,0.000626,-0.01967,-0.02633,0.038049,0.849469,0.43844,0.138638,0.258751,0.020855,0.011565
16,85883696804785,0.021027,8.135468,5.692001,4.533501,8.559558,-2.183239,0.008621,-0.048264,0.008087,-0.02001,-0.01938,0.041148,0.849469,0.438496,0.138529,0.258716,0.021129,0.011546
17,85883701718115,0.05336,8.158218,5.64711,4.573536,8.523131,-2.210956,0.006485,-0.045074,0.012344,-0.020016,-0.013685,0.040474,0.849466,0.43855,0.13842,0.258694,0.021404,0.01153
18,85883706661963,0.084488,8.161804,5.647705,4.601533,8.515007,-2.199841,9.2e-05,-0.046143,0.014481,-0.025917,-0.010418,0.03948,0.849468,0.438592,0.1383,0.258678,0.021681,0.011517
19,85883711605810,0.0755,8.18515,5.638733,4.607629,8.521327,-2.22587,-0.007355,-0.048264,0.018738,-0.033297,-0.00559,0.039933,0.849476,0.438623,0.138168,0.258671,0.021959,0.011508
20,85883716519140,0.015045,8.168991,5.652496,4.548985,8.543593,-2.235412,-0.015884,-0.045074,0.024063,-0.038603,0.003011,0.036928,0.849489,0.438633,0.138035,0.25868,0.022246,0.011502
21,85883721462988,-0.04361,8.171982,5.636932,4.503029,8.550568,-2.273481,-0.023331,-0.038681,0.029388,-0.041218,0.012811,0.032267,0.849506,0.438625,0.137907,0.258707,0.022523,0.0115
22,85883726406836,-0.0466,8.209702,5.631546,4.522859,8.564799,-2.30297,-0.030792,-0.032288,0.034714,-0.043844,0.022618,0.027601,0.849524,0.438601,0.137783,0.258755,0.022798,0.011501
23,85883731350683,-0.084305,8.253387,5.638123,4.517652,8.602625,-2.345108,-0.036118,-0.021637,0.043243,-0.042335,0.036412,0.022902,0.849538,0.438562,0.137671,0.258833,0.023084,0.011505
24,85883736294531,-0.026855,8.318039,5.608795,4.603788,8.590734,-2.377713,-0.044647,-0.00885,0.051758,-0.042275,0.052248,0.015282,0.84955,0.438505,0.137569,0.258946,0.023373,0.011511
25,85883741207861,0.03241,8.304871,5.582458,4.648053,8.5433,-2.354463,-0.056366,0.009262,0.052826,-0.041814,0.065591,-0.001691,0.849567,0.438414,0.137494,0.259086,0.023663,0.011519
26,85883746151709,0.082092,8.298874,5.517227,4.68859,8.470867,-2.362049,-0.069138,0.026306,0.046432,-0.042769,0.072677,-0.022736,0.849593,0.438285,0.137452,0.259237,0.023956,0.011528
27,85883751095556,0.049759,8.268356,5.492081,4.647396,8.445785,-2.366772,-0.082993,0.046539,0.04538,-0.042851,0.086018,-0.043332,0.849629,0.438115,0.137447,0.259412,0.024253,0.011539
28,85883756039404,0.081482,8.255188,5.511841,4.669,8.445285,-2.326549,-0.0979,0.067841,0.047501,-0.0432,0.102821,-0.063283,0.849673,0.437899,0.137472,0.25962,0.024553,0.011551
29,85883760952734,0.173065,8.246201,5.592041,4.742229,8.476961,-2.225539,-0.110687,0.087021,0.04538,-0.042934,0.114486,-0.083267,0.849725,0.437643,0.137525,0.25985,0.024862,0.011448
30,85883765896582,0.194611,8.188141,5.657288,4.729975,8.495384,-2.13171,-0.119217,0.09874,0.041107,-0.043303,0.119455,-0.097506,0.849788,0.437355,0.1376,0.26009,0.025176,0.011346
31,85883770840429,0.170074,8.083405,5.730911,4.652859,8.513192,-2.022432,-0.12561,0.104065,0.031525,-0.045458,0.116347,-0.109537,0.849866,0.43704,0.137692,0.260318,0.025492,0.011247
32,85883775753760,0.171265,8.010376,5.844635,4.614215,8.570743,-1.899103,-0.124542,0.110458,0.024063,-0.040851,0.113089,-0.117613,0.849948,0.436715,0.137802,0.260536,0.025811,0.011151
33,85883780728125,0.173065,7.98584,5.939804,4.603001,8.636526,-1.818698,-0.119217,0.114716,0.012344,-0.033896,0.103965,-0.124768,0.850033,0.436387,0.137938,0.260736,0.026134,0.01106
34,85883785671972,0.136551,7.935562,6.029587,4.545066,8.698035,-1.741907,-0.112823,0.120041,-0.000427,-0.025446,0.09416,-0.132761,0.85012,0.43606,0.138102,0.260912,0.026461,0.010974
35,85883790585303,0.058746,7.857147,6.186401,4.435769,8.814035,-1.626791,-0.098969,0.122177,-0.017471,-0.012602,0.076925,-0.137663,0.850207,0.435747,0.138298,0.261047,0.026791,0.010892
36,85883795529150,-0.101669,7.822433,6.324066,4.282207,8.962547,-1.590589,-0.08725,0.120041,-0.032394,-0.003947,0.060037,-0.13947,0.850297,0.435443,0.13852,0.261143,0.027122,0.010814
37,85883800472998,-0.208206,7.820038,6.356384,4.191634,9.02373,-1.613241,-0.070206,0.116852,-0.041977,0.008465,0.045248,-0.135005,0.850378,0.435172,0.138762,0.261206,0.027455,0.010738
38,85883805416845,-0.282425,7.783524,6.351608,4.108232,9.027755,-1.621083,-0.048904,0.097672,-0.049438,0.015319,0.023038,-0.116662,0.850447,0.434952,0.138988,0.261224,0.027789,0.010665
39,85883810360693,-0.254898,7.821243,6.346817,4.150142,9.034844,-1.633023,-0.022278,0.075302,-0.059021,0.024764,-0.004187,-0.09497,0.850501,0.434802,0.139194,0.261189,0.028122,0.010592
40,85883815304541,-0.308167,7.843384,6.381531,4.115666,9.092508,-1.650808,0.008621,0.052933,-0.066483,0.037706,-0.031079,-0.070061,0.850535,0.434727,0.139384,0.261103,0.028451,0.010518
41,85883820217871,-0.407532,7.860138,6.444382,4.039487,9.185081,-1.671739,0.040573,0.034821,-0.068604,0.05387,-0.051904,-0.044376,0.850544,0.434726,0.139561,0.26098,0.028771,0.010444
42,85883825161719,-0.442245,7.875107,6.432999,4.016367,9.195223,-1.706764,0.075729,0.016708,-0.064346,0.072609,-0.068564,-0.013467,0.850519,0.434813,0.139721,0.260832,0.029089,0.010367
43,85883830105566,-0.432663,7.96608,6.358185,4.073611,9.17598,-1.810874,0.109818,-0.001389,-0.057953,0.090457,-0.083107,0.0182,0.850456,0.434991,0.139859,0.260667,0.029406,0.010286
44,85883835049414,-0.4207,8.049286,6.290543,4.128648,9.157488,-1.906195,0.140717,-0.009918,-0.049438,0.111061,-0.090209,0.043261,0.850354,0.435248,0.139992,0.260498,0.029745,0.010195
45,85883839962744,-0.422485,8.091782,6.155884,4.150495,9.068604,-2.020925,0.166275,-0.010986,-0.041977,0.131484,-0.092791,0.060264,0.850218,0.435566,0.140131,0.260336,0.03006,0.010106
46,85883844906592,-0.375214,8.089981,5.981094,4.188524,8.909416,-2.107266,0.181198,-0.009918,-0.03772,0.144375,-0.093503,0.069043,0.850057,0.435927,0.140278,0.260177,0.030377,0.010011
47,85883849850439,-0.347076,8.113922,5.793152,4.225693,8.757772,-2.227509,0.185455,-0.013107,-0.033463,0.146059,-0.092848,0.075704,0.849886,0.436309,0.140418,0.260022,0.030694,0.009913
48,85883854794287,-0.277649,8.146255,5.654297,4.30128,8.636756,-2.305437,0.18013,-0.01738,-0.030258,0.139235,-0.090511,0.078012,0.849715,0.436691,0.14054,0.259872,0.031014,0.009811
49,85883859738135,-0.24292,8.181564,5.575287,4.34932,8.57693,-2.366528,0.169479,-0.024826,-0.026001,0.126212,-0.087157,0.080559,0.849553,0.437062,0.140635,0.259726,0.031336,0.009706
50,85883864651465,-0.232147,8.140259,5.430435,4.335093,8.434147,-2.424743,0.149231,-0.032288,-0.026001,0.10531,-0.084242,0.076168,0.849414,0.437397,0.140701,0.25958,0.031659,0.0096
51,85883869595312,-0.210602,8.130692,5.32988,4.347108,8.339584,-2.472671,0.123672,-0.039749,-0.024933,0.080009,-0.07879,0.069908,0.849302,0.43769,0.140735,0.259436,0.031821,0.009492
52,85883874539160,-0.214798,8.179764,5.304138,4.370146,8.342761,-2.527602,0.092773,-0.046143,-0.020676,0.050859,-0.06855,0.062272,0.849221,0.437927,0.140731,0.259305,0.031985,0.009382
53,85883879483008,-0.245926,8.177979,5.287384,4.342184,8.337522,-2.554877,0.066147,-0.056793,-0.01535,0.022823,-0.060864,0.060093,0.849169,0.438115,0.140685,0.259181,0.032151,0.009268
54,85883884426855,-0.232758,8.156418,5.332275,4.338915,8.359358,-2.511865,0.040573,-0.068512,-0.013214,-0.004908,-0.056646,0.057287,0.849149,0.438256,0.140593,0.259059,0.032319,0.00915
55,85883889370703,-0.269257,8.212692,5.381348,4.338551,8.437967,-2.541127,0.019272,-0.077026,-0.005753,-0.027366,-0.047897,0.057397,0.84915,0.438359,0.140464,0.258949,0.032491,0.009028
56,85883894314551,-0.300385,8.248596,5.420853,4.331571,8.497237,-2.559223,0.004364,-0.082352,0.00383,-0.042772,-0.037907,0.059575,0.849164,0.438437,0.140305,0.258858,0.032665,0.008901
57,85883899227881,-0.315353,8.279724,5.447189,4.335958,8.538217,-2.573619,-0.007355,-0.081284,0.016617,-0.051981,-0.023229,0.060793,0.849183,0.438492,0.140129,0.2588,0.032844,0.008771
58,85883904171728,-0.348267,8.297089,5.540573,4.317526,8.632897,-2.548153,-0.01268,-0.079163,0.028336,-0.055297,-0.010939,0.063664,0.849201,0.438536,0.139941,0.258769,0.033025,0.008637
59,85883909115576,-0.337494,8.301865,5.541763,4.329917,8.63197,-2.546961,-0.014816,-0.080231,0.046432,-0.057829,0.004021,0.073839,0.84921,0.438582,0.139729,0.258776,0.033212,0.008498
60,85883914059424,-0.330322,8.344376,5.561508,4.361087,8.665247,-2.56174,-0.023331,-0.078094,0.063477,-0.06381,0.021689,0.078295,0.849216,0.438615,0.139498,0.258823,0.033404,0.008355
61,85883919003271,-0.338089,8.367111,5.600418,4.369259,8.709181,-2.558758,-0.027603,-0.071701,0.076263,-0.063838,0.036584,0.079406,0.849217,0.438638,0.139264,0.258906,0.0336,0.008209
62,85883923916601,-0.315353,8.327606,5.625565,4.368416,8.702052,-2.507317,-0.035049,-0.070633,0.08905,-0.069469,0.049927,0.082636,0.849218,0.438648,0.139014,0.25902,0.0338,0.008061
63,85883928860449,-0.299789,8.261169,5.651291,4.347108,8.684492,-2.440517,-0.039322,-0.072769,0.102905,-0.074266,0.061599,0.090118,0.849218,0.438651,0.138739,0.259163,0.034007,0.007906
64,85883933804297,-0.218384,8.200714,5.671646,4.383882,8.644363,-2.350225,-0.046768,-0.081284,0.108231,-0.085182,0.06425,0.095521,0.849226,0.438645,0.13843,0.259313,0.034218,0.007747
65,85883938748144,-0.145966,8.166595,5.683014,4.428067,8.61236,-2.287067,-0.051041,-0.090881,0.108231,-0.094033,0.061025,0.100061,0.849241,0.438636,0.138094,0.259457,0.034429,0.007585
66,85883943661474,-0.099869,8.160019,5.720734,4.465742,8.623542,-2.239285,-0.057419,-0.096207,0.108231,-0.102222,0.06053,0.100765,0.849266,0.438616,0.137743,0.259597,0.034644,0.007419
67,85883948605322,-0.073532,8.139664,5.761429,4.479361,8.636815,-2.189598,-0.056366,-0.095139,0.107162,-0.100666,0.059858,0.099979,0.849291,0.438594,0.137392,0.259737,0.034861,0.007248
68,85883953549170,-0.087311,8.098358,5.782974,4.447843,8.63743,-2.155286,-0.053162,-0.087677,0.097565,-0.093705,0.054601,0.090942,0.849317,0.438569,0.137069,0.259864,0.035078,0.007073
69,85883958493017,-0.096283,8.078018,5.818893,4.431995,8.658336,-2.124583,-0.045715,-0.075958,0.093307,-0.080885,0.054379,0.084061,0.849335,0.438549,0.136781,0.259993,0.035297,0.006895
70,85883963436865,-0.097473,8.095367,5.861389,4.443789,8.700127,-2.112097,-0.030792,-0.058914,0.090118,-0.058905,0.055173,0.07763,0.849334,0.438546,0.136541,0.260128,0.035422,0.006687
71,85883968380713,-0.084915,8.099564,5.86618,4.459605,8.700404,-2.106453,-0.015884,-0.040802,0.082657,-0.036336,0.052985,0.067982,0.849315,0.43856,0.136357,0.260262,0.035548,0.006477
72,85883973294043,-0.078918,8.110931,5.82428,4.473946,8.66811,-2.136181,0.00116,-0.029099,0.075195,-0.01561,0.047022,0.063621,0.849277,0.438602,0.136217,0.260386,0.035673,0.006265
73,85883978237890,-0.092697,8.151031,5.835648,4.487865,8.699369,-2.163971,0.016083,-0.016312,0.070938,0.003952,0.044868,0.059399,0.849222,0.438667,0.136119,0.26051,0.035798,0.006053
74,85883983181738,-0.040619,8.165405,5.782379,4.541936,8.644167,-2.181888,0.028854,-0.006714,0.066681,0.019936,0.041872,0.056332,0.84915,0.438754,0.136052,0.260633,0.035923,0.005843
75,85883988125586,-0.023254,8.174377,5.76622,4.564209,8.627745,-2.190954,0.038452,-0.000336,0.066681,0.031473,0.041825,0.056437,0.849065,0.438858,0.136004,0.260759,0.036049,0.005635
76,85883993069433,-0.040024,8.198929,5.705765,4.566986,8.593665,-2.251982,0.042709,0.002869,0.063477,0.036813,0.039369,0.054374,0.848975,0.438971,0.135972,0.26088,0.036174,0.005429
77,85883997982763,-0.035828,8.216278,5.654892,4.583027,8.557124,-2.292981,0.041641,0.001801,0.064545,0.03534,0.040076,0.055211,0.848884,0.439085,0.135935,0.261001,0.0363,0.005224
78,85884002926611,-0.014877,8.220474,5.633942,4.605448,8.533295,-2.300092,0.03952,-0.000336,0.064545,0.032397,0.039743,0.055669,0.848796,0.439197,0.135893,0.261121,0.036425,0.005023
79,85884007870459,0.009064,8.212692,5.567505,4.623747,8.46561,-2.323761,0.032059,-0.001389,0.066681,0.025648,0.043402,0.054171,0.848713,0.439298,0.13584,0.261248,0.036549,0.004824
80,85884012814306,0.016251,8.190536,5.540573,4.620089,8.428815,-2.322271,0.023529,-0.000336,0.067749,0.019205,0.047542,0.050146,0.848638,0.439382,0.135783,0.261381,0.036672,0.004626
81,85884017727636,0.018036,8.133682,5.501663,4.592367,8.367602,-2.306238,0.01181,-0.000336,0.067749,0.009537,0.051343,0.044749,0.848576,0.43944,0.135719,0.261516,0.036791,0.004435
82,85884022671484,0.018646,8.075623,5.541763,4.563181,8.370784,-2.243798,9.2e-05,0.000732,0.072006,0.000474,0.059133,0.041091,0.848526,0.439472,0.135643,0.261668,0.036913,0.004237
83,85884027645849,0.019241,8.079208,5.614792,4.568598,8.43043,-2.20354,-0.008423,-0.000336,0.06987,-0.007142,0.059647,0.036663,0.848487,0.439482,0.135561,0.261817,0.037033,0.004039
84,85884032589697,0.049759,8.0457,5.643524,4.577692,8.426616,-2.149898,-0.01268,-0.002457,0.065613,-0.011835,0.056545,0.033682,0.848458,0.439482,0.135474,0.261958,0.037152,0.00384
85,85884037533545,0.065323,7.980453,5.664459,4.556156,8.406373,-2.086233,-0.015884,-0.012054,0.059219,-0.019877,0.047796,0.035,0.848441,0.439476,0.135371,0.262076,0.037271,0.003639
86,85884042477392,0.098846,7.956512,5.684219,4.572382,8.39916,-2.042926,-0.016953,-0.018433,0.051758,-0.024347,0.039015,0.034513,0.848432,0.439468,0.13526,0.262173,0.037391,0.003435
87,85884047421240,0.080292,8.013367,5.725525,4.590698,8.465221,-2.065826,-0.014816,-0.021637,0.041107,-0.024388,0.028097,0.031516,0.84843,0.439463,0.135156,0.262243,0.037511,0.003228
88,85884052334570,0.087479,8.082809,5.724319,4.6369,8.494336,-2.110141,-0.010559,-0.020569,0.030457,-0.020276,0.018522,0.026608,0.848428,0.439466,0.135069,0.26229,0.037632,0.003016
89,85884057278418,0.088669,8.103745,5.725525,4.65047,8.504431,-2.123186,-0.004166,-0.014175,0.020874,-0.011402,0.011656,0.019702,0.848423,0.439474,0.13501,0.262322,0.037755,0.002802
90,85884062191748,0.07132,8.089386,5.762024,4.628837,8.532616,-2.10059,0.002228,-0.004593,0.01767,-0.000722,0.011515,0.014324,0.848411,0.439487,0.134979,0.262355,0.038008,0.002359
91,85884067135595,0.062927,8.136078,5.78717,4.648973,8.577659,-2.121763,0.010757,0.005005,0.014481,0.011729,0.010694,0.009926,0.848389,0.43951,0.134978,0.262389,0.038008,0.002359
92,85884072079443,0.047363,8.149841,5.76442,4.644566,8.570237,-2.151701,0.017136,0.016708,0.012344,0.023594,0.012435,0.003727,0.848357,0.43954,0.135009,0.262428,0.03809,0.00216
93,85884076992773,0.036591,8.138474,5.790161,4.630114,8.588795,-2.134655,0.027802,0.026306,0.012344,0.037815,0.013517,0.002156,0.848311,0.439583,0.135067,0.262474,0.038176,0.001957
94,85884081936621,0.01326,8.180969,5.788971,4.635713,8.614977,-2.17555,0.037384,0.034821,0.012344,0.050531,0.014436,0.000822,0.848251,0.439643,0.135151,0.262525,0.038266,0.001748
95,85884086880469,0.006668,8.167801,5.736893,4.623777,8.567513,-2.200788,0.042709,0.040146,0.014481,0.057936,0.016972,0.000919,0.848178,0.439719,0.135252,0.262582,0.038359,0.001535
96,85884091824316,0.009659,8.14386,5.749466,4.613773,8.564625,-2.176987,0.045898,0.040146,0.014481,0.060569,0.015927,0.002395,0.848106,0.439792,0.135352,0.26264,0.038454,0.001318
97,85884096737646,0.001282,8.136673,5.739883,4.603816,8.555309,-2.182492,0.045898,0.041214,0.015549,0.061174,0.017303,0.002299,0.848033,0.439865,0.135455,0.262699,0.03855,0.001095
98,85884101681494,-0.001709,8.138474,5.708755,4.603339,8.530872,-2.204104,0.042709,0.036957,0.016617,0.05614,0.017192,0.004325,0.84796,0.439942,0.13555,0.262755,0.038645,0.000868
99,85884106564306,-0.023849,8.124695,5.677628,4.578184,8.505307,-2.224116,0.037384,0.026306,0.019806,0.045734,0.016478,0.010898,0.847894,0.440019,0.135624,0.262803,0.03874,0.000636
100,85884111508154,0.038986,8.147446,5.665665,4.644138,8.484704,-2.218999,0.032059,0.009262,0.025131,0.031718,0.014479,0.02301,0.847827,0.440113,0.135635,0.262856,0.038834,0.000399
101,85884116452002,0.083282,8.14505,5.617783,4.6807,8.428626,-2.226555,0.023529,-0.009918,0.029388,0.013853,0.011648,0.034468,0.847764,0.44022,0.135583,0.262906,0.038924,0.000164
102,85884121395849,0.113815,8.175583,5.564514,4.724511,8.38807,-2.26632,0.012878,-0.031219,0.032593,-0.006956,0.007655,0.04578,0.847705,0.440344,0.135474,0.262945,0.039012,-7.6e-05
103,85884126339697,0.159897,8.180359,5.532791,4.766849,8.347587,-2.269504,0.003296,-0.051468,0.038986,-0.026272,0.006433,0.058721,0.847652,0.440478,0.135297,0.262985,0.03918,-0.000573
104,85884131283545,0.195816,8.187546,5.518417,4.802346,8.325585,-2.269221,-0.004166,-0.065308,0.043243,-0.040209,0.00582,0.067095,0.847604,0.440615,0.135071,0.263026,0.03918,-0.000573
105,85884136227392,0.234711,8.197128,5.536377,4.841894,8.330118,-2.250493,-0.011627,-0.072769,0.04538,-0.05054,0.006501,0.069952,0.847565,0.440742,0.13481,0.263072,0.039257,-0.000824
106,85884141171240,0.255066,8.200714,5.530991,4.862763,8.318796,-2.249394,-0.022278,-0.075958,0.046432,-0.061091,0.009363,0.067839,0.847536,0.440852,0.13453,0.263123,0.039329,-0.001073
107,85884146115088,0.280212,8.18515,5.512436,4.876773,8.286093,-2.240525,-0.029724,-0.075958,0.04538,-0.067205,0.010968,0.063841,0.847514,0.440951,0.13424,0.263178,0.039395,-0.001321
108,85884151058935,0.260452,8.160019,5.50824,4.848242,8.275502,-2.237188,-0.037186,-0.079163,0.046432,-0.075133,0.012785,0.063223,0.847503,0.44103,0.133944,0.263229,0.039454,-0.001564
109,85884156002783,0.256271,8.145645,5.516617,4.838707,8.275331,-2.226216,-0.045715,-0.077026,0.046432,-0.080934,0.016618,0.057899,0.847504,0.441084,0.13365,0.263285,0.039484,-0.001771
110,85884160946631,0.246094,8.094772,5.583069,4.803958,8.307799,-2.158485,-0.058487,-0.067444,0.044312,-0.086058,0.023623,0.044372,0.847534,0.441073,0.133366,0.263353,0.039509,-0.001974
111,85884165890478,0.186829,8.069641,5.68721,4.743499,8.399723,-2.107657,-0.060623,-0.052521,0.047501,-0.079363,0.033995,0.035154,0.84758,0.441007,0.133121,0.263438,0.039529,-0.002174
112,85884170834326,0.197006,8.071426,5.694397,4.755078,8.402252,-2.098647,-0.062759,-0.040802,0.046432,-0.074505,0.039373,0.025654,0.847626,0.440928,0.132898,0.263536,0.039545,-0.002371
113,85884175778174,0.144928,8.017563,5.800339,4.684229,8.480191,-2.022506,-0.060623,-0.033356,0.042175,-0.068559,0.038716,0.019165,0.847693,0.440801,0.132704,0.263628,0.039559,-0.002563
114,85884180691504,0.164688,8.009781,5.857803,4.698271,8.516689,-1.972257,-0.058487,-0.026962,0.035782,-0.063226,0.035816,0.012154,0.847768,0.440658,0.132521,0.263719,0.039573,-0.00275
115,85884185635351,0.182037,7.995407,5.88533,4.706389,8.526439,-1.935584,-0.056366,-0.018433,0.031525,-0.056689,0.035678,0.004917,0.847845,0.440503,0.132353,0.263815,0.039587,-0.002933
116,85884190731787,0.171875,7.996613,5.931427,4.700524,8.567955,-1.911137,-0.049973,-0.013107,0.026199,-0.048442,0.03174,0.001178,0.847925,0.440341,0.132205,0.263904,0.039602,-0.003113
117,85884195584082,0.205994,7.983444,5.945786,4.722724,8.562081,-1.875339,-0.044647,-0.014175,0.019806,-0.044694,0.02426,0.000658,0.848002,0.440191,0.132056,0.263982,0.03962,-0.00329
118,85884200466894,0.199402,7.94873,5.927231,4.698618,8.532673,-1.862942,-0.036118,-0.01738,0.015549,-0.039492,0.016446,0.004273,0.848074,0.440057,0.131912,0.264043,0.03964,-0.003466
119,85884205380224,0.195206,7.940948,5.932617,4.69164,8.534851,-1.854059,-0.03186,-0.020569,0.011292,-0.037809,0.010053,0.005923,0.848148,0.43993,0.131771,0.264089,0.039663,-0.003641
120,85884210324072,0.182037,7.92778,5.879944,4.673512,8.490075,-1.879742,-0.027603,-0.025894,0.009155,-0.037313,0.004376,0.010239,0.848213,0.439827,0.131632,0.26412,0.03969,-0.003815
121,85884215298437,0.179657,7.923584,5.879944,4.669577,8.489033,-1.876309,-0.023331,-0.026962,0.004898,-0.034424,-0.001022,0.010451,0.848278,0.439731,0.1315,0.264137,0.039721,-0.003992
122,85884220242285,0.15271,7.900238,5.899094,4.634631,8.502797,-1.859837,-0.02121,-0.025894,0.004898,-0.032069,-0.001222,0.010699,0.848346,0.439627,0.131379,0.264152,0.039755,-0.004171
123,85884225186133,0.149124,7.870911,5.888916,4.615245,8.482101,-1.84559,-0.019073,-0.021637,0.002762,-0.027923,-0.001658,0.007558,0.848413,0.439521,0.131272,0.264165,0.039793,-0.004359
124,85884230099463,0.126984,7.811661,5.856003,4.563385,8.434921,-1.832653,-0.015884,-0.015244,0.001694,-0.021695,-0.000559,0.004068,0.848478,0.439414,0.131189,0.264179,0.039835,-0.004554
125,85884235043310,0.0755,7.787125,5.821289,4.506479,8.412694,-1.857597,-0.01268,-0.009918,-0.001495,-0.016078,-0.0017,7.5e-05,0.848539,0.439309,0.131143,0.26418,0.039878,-0.004751
126,85884239987158,0.09465,7.752396,5.80452,4.502283,8.376741,-1.833236,-0.009491,-0.007782,-0.005753,-0.01228,-0.005218,-0.002388,0.848599,0.439208,0.1311,0.264177,0.039923,-0.004963
127,85884244931006,0.120392,7.687759,5.797943,4.486567,8.332814,-1.779653,-0.008423,-0.007782,-0.014282,-0.011479,-0.012521,-0.006851,0.848666,0.439099,0.131055,0.264163,0.039969,-0.005182
128,85884249874853,0.131165,7.695541,5.763824,4.498597,8.30595,-1.798339,-0.005234,-0.012054,-0.024933,-0.011352,-0.024287,-0.008696,0.848732,0.43901,0.131014,0.26412,0.040013,-0.005406
129,85884254788183,0.13176,7.687759,5.699188,4.492708,8.250339,-1.829521,-0.002029,-0.021637,-0.034515,-0.01419,-0.037712,-0.006326,0.848794,0.438948,0.13097,0.264044,0.040055,-0.005638
130,85884259701513,0.165283,7.74881,5.662079,4.552707,8.238871,-1.877336,0.004364,-0.030151,-0.045181,-0.013795,-0.052576,-0.003858,0.848845,0.43893,0.13092,0.263937,0.040093,-0.005876
131,85884264645361,0.199997,7.823624,5.610001,4.621007,8.221334,-1.943506,0.007553,-0.033356,-0.054764,-0.013044,-0.062968,-0.005802,0.848882,0.438952,0.130872,0.263806,0.040126,-0.006117
132,85884269589209,0.216156,7.867325,5.538177,4.656142,8.179022,-2.009186,0.008621,-0.033356,-0.059021,-0.012189,-0.066793,-0.007779,0.848904,0.439006,0.130832,0.263663,0.040178,-0.006515
133,85884274533056,0.252075,7.955307,5.453171,4.732524,8.140108,-2.104587,0.016083,-0.026962,-0.061157,-0.002433,-0.067978,-0.009943,0.848893,0.439118,0.130813,0.26352,0.040222,-0.006917
134,85884279476904,0.255066,8.0457,5.37117,4.782979,8.115568,-2.215523,0.016083,-0.021637,-0.064346,0.000543,-0.068048,-0.015373,0.848862,0.439268,0.13082,0.26337,0.040258,-0.007322
135,85884284420752,0.261658,8.083405,5.253265,4.806759,8.035156,-2.310425,0.015015,-0.009918,-0.060089,0.006293,-0.058663,-0.021298,0.848803,0.439451,0.130857,0.263236,0.040287,-0.007729
136,85884289303564,0.345444,8.109146,5.183228,4.887915,7.963495,-2.331183,0.008621,0.007126,-0.056885,0.010623,-0.045832,-0.033877,0.848812,0.439476,0.130932,0.263126,0.040308,-0.008135
137,85884294216894,0.395126,8.151031,5.126373,4.950868,7.921399,-2.369688,-0.000961,0.026306,-0.053696,0.013513,-0.03094,-0.049359,0.848813,0.43947,0.13105,0.263074,0.040322,-0.008544
138,85884299160742,0.401108,8.16301,5.11261,4.960771,7.915233,-2.38206,-0.015884,0.052933,-0.052628,0.016154,-0.012463,-0.073537,0.848838,0.439424,0.131186,0.263003,0.04033,-0.008954
139,85884304104590,0.401108,8.131882,5.079086,4.942072,7.874459,-2.377889,-0.030792,0.081696,-0.053696,0.020008,0.005293,-0.100386,0.848862,0.439324,0.131388,0.262993,0.040333,-0.009363
140,85884309078955,0.41188,8.137863,5.071899,4.953633,7.869433,-2.377427,-0.046768,0.108322,-0.054764,0.021806,0.022401,-0.126264,0.848894,0.439174,0.131637,0.263015,0.040333,-0.009772
141,85884314022803,0.420868,8.078018,5.133545,4.927442,7.890011,-2.291913,-0.062759,0.139221,-0.057953,0.026022,0.039845,-0.156253,0.848938,0.438965,0.13194,0.263071,0.040331,-0.01018
142,85884318966650,0.413681,8.032532,5.249664,4.89627,7.967501,-2.190249,-0.079803,0.175446,-0.065414,0.032401,0.056731,-0.192771,0.848996,0.438689,0.132315,0.263156,0.040328,-0.010577
143,85884323910498,0.346054,7.997208,5.33287,4.820476,8.043369,-2.140532,-0.096848,0.208466,-0.073929,0.037054,0.071283,-0.227704,0.84907,0.438347,0.132759,0.263264,0.040327,-0.010987
144,85884328854345,0.283798,7.971466,5.484894,4.75449,8.178322,-2.053967,-0.10643,0.22551,-0.082458,0.03894,0.075778,-0.248441,0.849158,0.437962,0.133242,0.263376,0.040326,-0.011391
145,85884333798193,0.161697,7.902039,5.666855,4.613718,8.336807,-1.947525,-0.109619,0.231903,-0.095245,0.040121,0.069638,-0.261549,0.849261,0.437551,0.133753,0.263467,0.040328,-0.011794
146,85884338742041,0.067719,7.871521,5.808716,4.517311,8.471998,-1.877719,-0.111755,0.224442,-0.100571,0.034386,0.062608,-0.26053,0.849377,0.43713,0.134256,0.263538,0.040334,-0.012196
147,85884343685888,0.018646,7.896057,5.938004,4.488369,8.608499,-1.831996,-0.108566,0.207397,-0.105896,0.027604,0.049216,-0.250659,0.8495,0.436719,0.134731,0.263578,0.040343,-0.012597
148,85884348629736,-0.043015,7.950516,6.121155,4.465209,8.807308,-1.781646,-0.098969,0.174377,-0.111221,0.017022,0.026013,-0.227169,0.849631,0.436341,0.135149,0.263567,0.040359,-0.012998
149,85884353573584,-0.072342,7.961899,6.191193,4.443444,8.882858,-1.754589,-0.090454,0.133896,-0.117615,0.00127,-0.001335,-0.19985,0.849772,0.436003,0.135495,0.263496,0.040379,-0.013401
150,85884358517431,-0.150146,8.001999,6.257034,4.397244,8.984779,-1.772865,-0.077667,0.092346,-0.121872,-0.011606,-0.028926,-0.168646,0.849917,0.435714,0.135771,0.263365,0.040406,-0.013804
151,85884363461279,-0.24054,8.04808,6.271393,4.343493,9.051828,-1.832585,-0.062759,0.047607,-0.124008,-0.024565,-0.057084,-0.13312,0.850062,0.435485,0.135969,0.263174,0.040439,-0.014208
152,85884368405127,-0.278244,8.08699,6.237885,4.329067,9.058981,-1.892635,-0.052094,0.003937,-0.117615,-0.040445,-0.076455,-0.095296,0.850204,0.435311,0.136078,0.262945,0.040483,-0.014493
153,85884373318457,-0.321335,8.159424,6.187607,4.329289,9.070199,-1.988648,-0.043579,-0.033356,-0.106964,-0.054501,-0.088626,-0.060235,0.850341,0.435187,0.136106,0.262694,0.040532,-0.014781
154,85884378262304,-0.32373,8.195328,6.11937,4.342613,9.03566,-2.052685,-0.041443,-0.056793,-0.098434,-0.065971,-0.093754,-0.038603,0.850476,0.435089,0.136078,0.262434,0.040585,-0.015071
155,85884383206152,-0.326721,8.228256,6.077469,4.35405,9.021001,-2.100108,-0.039322,-0.070633,-0.086716,-0.072039,-0.091663,-0.021522,0.850604,0.435012,0.136011,0.262182,0.040642,-0.015365
156,85884388150000,-0.333313,8.251587,6.019409,4.357637,8.989542,-2.152265,-0.042511,-0.075958,-0.073929,-0.07769,-0.082849,-0.011942,0.850727,0.434939,0.135918,0.261951,0.040702,-0.015662
157,85884393276953,-0.30159,8.245605,5.958359,4.376758,8.928777,-2.168857,-0.046768,-0.075958,-0.062225,-0.081223,-0.071986,-0.007041,0.85085,0.434861,0.135805,0.261739,0.040763,-0.015964
158,85884398129248,-0.32193,8.256973,5.926025,4.363183,8.916517,-2.203946,-0.051041,-0.071701,-0.053696,-0.082368,-0.061628,-0.006848,0.850963,0.43478,0.135697,0.261562,0.040824,-0.01627
159,85884402920508,-0.303375,8.260574,5.930817,4.37787,8.917712,-2.193704,-0.058487,-0.057846,-0.043045,-0.080749,-0.043849,-0.013289,0.851071,0.43468,0.135602,0.261425,0.040886,-0.016583
160,85884407864355,-0.239334,8.252792,5.917053,4.424334,8.883409,-2.165092,-0.069138,-0.042938,-0.034515,-0.081191,-0.02622,-0.023142,0.851183,0.434549,0.135515,0.261323,0.040947,-0.016901
161,85884412808203,-0.177689,8.259369,5.931427,4.477168,8.879628,-2.130217,-0.077667,-0.034424,-0.030258,-0.083469,-0.015846,-0.030241,0.851298,0.434398,0.135433,0.261245,0.041007,-0.017223
162,85884417752051,-0.196838,8.261765,6.006241,4.460812,8.949254,-2.093433,-0.088318,-0.031219,-0.026001,-0.090492,-0.007352,-0.034754,0.851422,0.434219,0.135346,0.261182,0.041066,-0.017548
163,85884422695898,-0.171097,8.258179,6.050537,4.478517,8.976518,-2.049586,-0.096848,-0.031219,-0.021744,-0.097566,-0.001107,-0.036146,0.851553,0.434023,0.135248,0.261131,0.041123,-0.017868
164,85884427639746,-0.130402,8.253387,6.087036,4.508162,8.991818,-2.002793,-0.095779,-0.035477,-0.017471,-0.099097,-6.4e-05,-0.030287,0.851682,0.433833,0.135134,0.261087,0.041183,-0.018206
165,85884432583594,-0.156143,8.259979,6.167252,4.489094,9.069753,-1.968318,-0.094711,-0.040802,-0.01535,-0.101218,-0.001288,-0.024976,0.851812,0.433645,0.135007,0.26104,0.041242,-0.018544
166,85884437527441,-0.177689,8.267151,6.16246,4.474312,9.077703,-1.982219,-0.094711,-0.040802,-0.011093,-0.101238,0.002161,-0.022455,0.851939,0.433459,0.134878,0.261002,0.041303,-0.018885
167,85884442471289,-0.157928,8.26297,6.228302,4.487482,9.1235,-1.928121,-0.093643,-0.039749,-0.002563,-0.099797,0.009231,-0.017634,0.85206,0.433275,0.13474,0.260983,0.041365,-0.019226
168,85884447384619,-0.18187,8.244415,6.216324,4.457156,9.113375,-1.930353,-0.089386,-0.04187,0.008087,-0.097503,0.015418,-0.007986,0.852169,0.433106,0.134591,0.260983,0.04143,-0.019569
169,85884452328467,-0.202225,8.195328,6.228302,4.413033,9.106262,-1.896608,-0.088318,-0.0504,0.020874,-0.101447,0.021242,0.005758,0.852274,0.432945,0.134412,0.260999,0.041497,-0.019914
170,85884457272314,-0.199234,8.151031,6.257034,4.391198,9.107156,-1.845716,-0.089386,-0.06105,0.029388,-0.108327,0.023273,0.017441,0.85238,0.43279,0.134199,0.261023,0.041566,-0.020262
171,85884462216162,-0.134583,8.124695,6.322281,4.430368,9.126024,-1.757118,-0.094711,-0.069565,0.029388,-0.117503,0.020864,0.020756,0.852494,0.432626,0.13396,0.261041,0.041635,-0.020564
172,85884467160010,-0.133987,8.056473,6.398285,4.392761,9.154184,-1.663523,-0.094711,-0.084488,0.025131,-0.125851,0.010123,0.028266,0.852619,0.432466,0.133694,0.261036,0.041704,-0.02087
173,85884472073340,-0.18187,8.001999,6.453354,4.322507,9.18813,-1.61398,-0.088318,-0.104721,0.02301,-0.131878,-0.003612,0.043488,0.852747,0.432326,0.133394,0.261001,0.041773,-0.021179
174,85884476986670,-0.153137,7.963684,6.500046,4.324501,9.197999,-1.545891,-0.085129,-0.121765,0.01767,-0.13875,-0.01734,0.053233,0.852882,0.432201,0.133064,0.260937,0.04184,-0.021491
175,85884481930517,-0.110641,7.902634,6.549728,4.324853,9.194577,-1.455373,-0.072342,-0.134552,0.010223,-0.135268,-0.033858,0.063232,0.853014,0.432104,0.132718,0.260841,0.041906,-0.021808
176,85884486874365,-0.074738,7.897247,6.577255,4.350666,9.202708,-1.419235,-0.053162,-0.145203,0.00383,-0.125276,-0.050597,0.075304,0.853134,0.432052,0.132367,0.260715,0.04197,-0.022129
177,85884491787695,-0.050186,7.920593,6.553314,4.382835,9.187128,-1.439351,-0.024399,-0.150528,-0.003632,-0.104339,-0.068751,0.087486,0.853228,0.432063,0.132033,0.26056,0.042031,-0.022451
178,85884496701025,9.2e-05,7.897247,6.500641,4.410035,9.116851,-1.435073,0.005432,-0.148407,-0.008957,-0.078339,-0.081871,0.096409,0.853291,0.432136,0.131726,0.260386,0.042089,-0.022773
179,85884501461767,0.01564,7.90863,6.413254,4.427746,9.046957,-1.491354,0.038452,-0.13562,-0.013214,-0.043735,-0.089929,0.100229,0.853316,0.432267,0.131479,0.260212,0.042144,-0.023099
180,85884506558203,0.086868,7.962494,6.306717,4.515078,8.963884,-1.564085,0.07254,-0.118576,-0.019608,-0.005869,-0.097949,0.100391,0.853298,0.432478,0.13128,0.26002,0.042197,-0.023424
181,85884511532568,0.15332,7.993622,6.164261,4.585656,8.842097,-1.645815,0.104492,-0.091934,-0.027069,0.035558,-0.101393,0.092511,0.853239,0.432739,0.13117,0.259836,0.042245,-0.023747
182,85884516506933,0.165878,8.035522,5.970917,4.6174,8.702097,-1.789467,0.131119,-0.054657,-0.033463,0.078463,-0.096991,0.075734,0.853138,0.433041,0.131166,0.259668,0.04229,-0.024063
183,85884521450781,0.146729,8.048691,5.789566,4.606939,8.567916,-1.920649,0.149231,-0.009918,-0.039841,0.118426,-0.08612,0.050142,0.853003,0.433355,0.131277,0.259528,0.042334,-0.024391
184,85884526394629,0.21376,8.090576,5.681824,4.684422,8.478722,-1.988392,0.158829,0.0327,-0.045181,0.150125,-0.072671,0.022777,0.852845,0.433667,0.131488,0.259421,0.042374,-0.024708
185,85884531338476,0.214371,8.101959,5.556122,4.689961,8.381876,-2.075231,0.16095,0.071045,-0.050507,0.173238,-0.058874,-0.005049,0.852672,0.433963,0.131788,0.259342,0.042414,-0.025052
186,85884536282324,0.185638,8.117523,5.422653,4.673698,8.290419,-2.181571,0.154556,0.104065,-0.054764,0.186333,-0.044057,-0.032482,0.852495,0.434228,0.132162,0.259289,0.042447,-0.025377
187,85884541226172,0.165878,8.134277,5.358612,4.66595,8.252818,-2.242452,0.136459,0.130692,-0.054764,0.186173,-0.025124,-0.058387,0.852328,0.43444,0.132581,0.25927,0.042477,-0.025705
188,85884546139502,0.117401,8.121704,5.327484,4.618275,8.237123,-2.275784,0.111954,0.15094,-0.054764,0.177168,-0.007239,-0.082915,0.85218,0.434587,0.133027,0.25928,0.042503,-0.02604
189,85884551083349,0.082092,8.097168,5.318497,4.574895,8.229559,-2.28077,0.082123,0.159454,-0.055832,0.15723,0.005777,-0.102626,0.852062,0.434665,0.133478,0.259306,0.042525,-0.026381
190,85884556027197,0.065918,8.065445,5.404099,4.542829,8.289416,-2.215458,0.049103,0.157333,-0.062225,0.128746,0.010329,-0.11981,0.851987,0.434667,0.133908,0.259327,0.042543,-0.026724
191,85884560971045,0.020432,7.981049,5.477722,4.456745,8.323816,-2.134126,0.018204,0.144547,-0.063278,0.096061,0.013312,-0.125795,0.851953,0.434606,0.134293,0.259343,0.042556,-0.02707
192,85884565914892,-0.0448,7.942139,5.580078,4.379198,8.41044,-2.074606,-0.009491,0.129639,-0.064346,0.064845,0.014206,-0.128958,0.851958,0.434489,0.134632,0.259348,0.042566,-0.027417
193,85884570858740,-0.072937,7.895462,5.692596,4.327622,8.489691,-1.98649,-0.029724,0.112595,-0.066483,0.038617,0.010764,-0.127961,0.851995,0.434332,0.134923,0.259338,0.042574,-0.027709
194,85884575772070,-0.113037,7.88707,5.833862,4.2868,8.615015,-1.912452,-0.042511,0.091278,-0.071808,0.016177,0.000228,-0.122611,0.852059,0.434155,0.135165,0.259298,0.042581,-0.027999
195,85884580715918,-0.20163,7.859543,5.973312,4.194648,8.745314,-1.848762,-0.046768,0.072113,-0.072876,0.001981,-0.008588,-0.112342,0.852139,0.433971,0.135369,0.259236,0.042586,-0.028283
196,85884585659765,-0.332703,7.833801,6.096619,4.067912,8.877145,-1.815592,-0.041443,0.052933,-0.073929,-0.004291,-0.020524,-0.0977,0.852225,0.433803,0.135543,0.259146,0.04259,-0.028564
197,85884590573095,-0.37999,7.820038,6.194778,4.017198,8.96714,-1.767803,-0.028671,0.033752,-0.073929,-0.004403,-0.034035,-0.07905,0.852305,0.433668,0.135684,0.259032,0.042593,-0.028839
198,85884595516943,-0.397354,7.824829,6.231293,4.002104,9.006385,-1.755857,-0.013748,0.020981,-0.068604,0.000814,-0.040803,-0.060582,0.852372,0.433573,0.135803,0.258909,0.042595,-0.029107
199,85884600460791,-0.404541,7.832016,6.227707,3.997232,9.010764,-1.765439,0.005432,0.013519,-0.063278,0.012525,-0.046349,-0.043718,0.852417,0.433526,0.135913,0.258783,0.042596,-0.029369
200,85884605404638,-0.412918,7.846375,6.19838,3.995561,8.998018,-1.796418,0.024597,0.009262,-0.062225,0.026048,-0.053773,-0.031506,0.852441,0.433523,0.136026,0.258647,0.042595,-0.029628
201,85884610348486,-0.403931,7.864334,6.156479,4.010569,8.970993,-1.830222,0.043777,0.007126,-0.059021,0.040754,-0.058413,-0.019435,0.852442,0.433566,0.136144,0.25851,0.042592,-0.029885
202,85884615292334,-0.384781,7.918793,6.076263,4.054831,8.92739,-1.906916,0.055496,0.006058,-0.056885,0.049878,-0.060976,-0.012103,0.852427,0.43364,0.136265,0.258372,0.042586,-0.030137
203,85884620236181,-0.331512,7.917007,5.954163,4.096474,8.811096,-1.95562,0.066147,0.002869,-0.054764,0.056932,-0.06424,-0.003843,0.852397,0.433746,0.136382,0.258232,0.042576,-0.030387
204,85884625149511,-0.288422,7.896652,5.888321,4.118858,8.734497,-1.963714,0.068268,-0.003525,-0.054764,0.05514,-0.068041,0.001425,0.852366,0.433861,0.136485,0.258086,0.04256,-0.030651
205,85884630093359,-0.245316,7.926575,5.800339,4.16958,8.664576,-2.018546,0.067215,-0.005661,-0.054764,0.053093,-0.068734,0.002395,0.852334,0.433983,0.136582,0.257938,0.04254,-0.030914
206,85884635037207,-0.221985,7.963089,5.735687,4.207378,8.623194,-2.072854,0.060822,-0.003525,-0.055832,0.04901,-0.066486,-0.002561,0.852306,0.434093,0.136681,0.257792,0.042447,-0.031728
207,85884639981054,-0.218979,7.96788,5.693802,4.210373,8.591335,-2.101453,0.052292,-0.000336,-0.057953,0.043751,-0.063895,-0.009818,0.852286,0.434184,0.136783,0.257648,0.042447,-0.031728
208,85884644924902,-0.215988,7.96907,5.641129,4.211357,8.549163,-2.133392,0.040573,0.006058,-0.062225,0.037655,-0.060461,-0.021941,0.852279,0.434248,0.136896,0.257505,0.042447,-0.031728
209,85884649868750,-0.228561,8.000809,5.60701,4.216435,8.542081,-2.181329,0.025665,0.01033,-0.060089,0.027663,-0.05186,-0.030355,0.852283,0.43428,0.137008,0.257376,0.042409,-0.032006
210,85884654812597,-0.258484,8.031326,5.658478,4.205615,8.609439,-2.185802,0.015015,0.011383,-0.059021,0.019417,-0.04707,-0.035298,0.852299,0.434288,0.137115,0.257254,0.042369,-0.032286
211,85884659725928,-0.248306,8.044495,5.645905,4.21913,8.603601,-2.197463,0.005432,0.009262,-0.056885,0.010273,-0.043316,-0.037006,0.852324,0.434279,0.137209,0.257138,0.042329,-0.032564
212,85884664669775,-0.239334,8.092972,5.683624,4.250841,8.656317,-2.203543,-0.003098,0.008194,-0.054764,0.002588,-0.039397,-0.038949,0.852357,0.434253,0.137292,0.257027,0.042287,-0.032796
213,85884669613623,-0.290817,8.101364,5.722519,4.210119,8.709638,-2.209301,-0.009491,0.014587,-0.052628,0.000834,-0.032487,-0.044905,0.852394,0.434209,0.137385,0.256929,0.042246,-0.033025
214,85884674557470,-0.358444,8.100159,5.749466,4.150998,8.753604,-2.222838,-0.011627,0.015656,-0.046234,-0.000404,-0.026095,-0.042858,0.85243,0.434159,0.137474,0.256845,0.042208,-0.033253
215,85884679501318,-0.413513,8.082809,5.806915,4.09331,8.810209,-2.201835,-0.014816,0.011383,-0.035583,-0.005547,-0.01854,-0.035224,0.852467,0.434104,0.137543,0.256779,0.042172,-0.033478
216,85884684414648,-0.424286,8.105545,5.812912,4.095509,8.830526,-2.217754,-0.015884,-0.000336,-0.028137,-0.013047,-0.017921,-0.02351,0.852503,0.434059,0.13758,0.256716,0.04214,-0.0337
217,85884689358496,-0.410522,8.154633,5.816498,4.132975,8.853884,-2.241771,-0.015884,-0.013107,-0.020676,-0.020247,-0.018149,-0.010594,0.852539,0.434025,0.137581,0.256655,0.042109,-0.033923
218,85884694271826,-0.405136,8.174377,5.814697,4.147389,8.860949,-2.253454,-0.014816,-0.025894,-0.013214,-0.026569,-0.018727,0.002824,0.852572,0.434005,0.137548,0.256596,0.042081,-0.034144
219,85884699215674,-0.454208,8.179169,5.847031,4.108011,8.905534,-2.26021,-0.014816,-0.036545,-0.005753,-0.032586,-0.017918,0.014326,0.852605,0.433992,0.137486,0.25654,0.042055,-0.034369
220,85884704159521,-0.476364,8.213287,5.905685,4.10741,8.977141,-2.258801,-0.016953,-0.039749,0.004898,-0.036266,-0.010183,0.021736,0.852636,0.433978,0.137406,0.256503,0.042031,-0.034596
221,85884709072851,-0.498505,8.22287,5.970917,4.093706,9.041679,-2.237311,-0.01268,-0.044006,0.019806,-0.035254,-0.001552,0.035275,0.852656,0.433978,0.137305,0.256492,0.042008,-0.034826
222,85884714047217,-0.532028,8.215683,5.991272,4.062471,9.064788,-2.236442,-0.007355,-0.052521,0.038986,-0.035777,0.008115,0.05465,0.852661,0.434,0.137168,0.256509,0.041987,-0.03506
223,85884718991064,-0.500305,8.217484,5.995468,4.09098,9.058198,-2.221687,-0.004166,-0.065308,0.049637,-0.040341,0.009451,0.07092,0.852661,0.434041,0.136995,0.256534,0.041968,-0.035304
224,85884723934912,-0.457214,8.194138,5.984695,4.115606,9.023174,-2.194001,-0.002029,-0.077026,0.062424,-0.04519,0.013384,0.08725,0.852654,0.434098,0.136782,0.256575,0.041951,-0.035541
225,85884728848242,-0.397949,8.181564,5.931427,4.160541,8.953542,-2.191378,9.2e-05,-0.084488,0.074142,-0.047656,0.018554,0.100099,0.852638,0.434171,0.136542,0.256632,0.041923,-0.036032
226,85884733792090,-0.36264,8.207306,5.90448,4.20687,8.931514,-2.210101,9.2e-05,-0.087677,0.080521,-0.049442,0.022176,0.105994,0.852618,0.434251,0.136285,0.2567,0.041923,-0.036032
227,85884738735937,-0.306366,8.177368,5.872757,4.239966,8.871434,-2.184672,-0.003098,-0.088745,0.086914,-0.05269,0.027871,0.109024,0.852597,0.434328,0.136015,0.256782,0.041912,-0.036284
228,85884743679785,-0.261475,8.163605,5.839844,4.272841,8.821801,-2.176082,-0.003098,-0.090881,0.092239,-0.053862,0.031161,0.1136,0.852573,0.43441,0.135733,0.256875,0.041903,-0.036539
229,85884748623633,-0.248306,8.140259,5.823685,4.273963,8.791128,-2.165642,-0.004166,-0.091934,0.095444,-0.055295,0.033607,0.115723,0.852547,0.434491,0.135444,0.256973,0.041889,-0.037059
230,85884753567480,-0.191452,8.121704,5.797348,4.314341,8.740488,-2.144354,-0.008423,-0.089813,0.098633,-0.057611,0.03862,0.11426,0.852523,0.434564,0.135151,0.257084,0.041889,-0.037059
231,85884758511328,-0.132797,8.125305,5.716537,4.368899,8.655927,-2.169016,-0.009491,-0.08342,0.097565,-0.054874,0.041253,0.10888,0.852496,0.434636,0.13487,0.2572,0.041911,-0.037336
232,85884763424658,-0.122025,8.113327,5.693192,4.374518,8.62574,-2.171067,-0.01268,-0.080231,0.096512,-0.055685,0.043008,0.104699,0.852472,0.434698,0.134597,0.257317,0.041933,-0.037616
233,85884768368506,-0.069351,8.088791,5.700974,4.407801,8.601181,-2.127319,-0.014816,-0.075958,0.093307,-0.055011,0.043209,0.099006,0.852451,0.434753,0.13433,0.257436,0.041954,-0.037901
234,85884773312353,0.040192,8.120514,5.653687,4.519817,8.541255,-2.127629,-0.019073,-0.066376,0.087982,-0.053148,0.044972,0.087539,0.852432,0.434795,0.134082,0.257557,0.041975,-0.03819
235,85884778256201,0.018646,8.131882,5.636932,4.511175,8.538559,-2.155259,-0.025467,-0.056793,0.081589,-0.053069,0.046556,0.074478,0.85242,0.434816,0.133858,0.257676,0.041995,-0.038481
236,85884783200049,0.05336,8.128296,5.633942,4.540764,8.521687,-2.13907,-0.028671,-0.0504,0.075195,-0.05212,0.045549,0.065002,0.852413,0.434825,0.133651,0.257791,0.042016,-0.038781
237,85884788082861,0.115601,8.149841,5.62735,4.607047,8.505387,-2.129303,-0.030792,-0.045074,0.06987,-0.050875,0.044536,0.057358,0.85241,0.434826,0.13346,0.257901,0.042037,-0.039082
238,85884793026709,0.123978,8.116913,5.646515,4.598049,8.500927,-2.091656,-0.035049,-0.032288,0.062424,-0.047262,0.04614,0.042487,0.852412,0.434806,0.133297,0.258012,0.042058,-0.039388
239,85884797970556,0.119202,8.087585,5.694992,4.579774,8.526516,-2.0446,-0.039322,-0.018433,0.052826,-0.043071,0.046528,0.025625,0.852422,0.434761,0.133171,0.258119,0.04208,-0.039698
240,85884802883886,0.104828,8.074417,5.741684,4.562143,8.56194,-2.013511,-0.039322,-0.007782,0.041107,-0.03711,0.042248,0.011599,0.852437,0.434704,0.13308,0.258213,0.042103,-0.040012
241,85884807827734,0.101837,8.032532,5.76503,4.5377,8.560961,-1.971494,-0.035049,0.005005,0.029388,-0.026416,0.037624,-0.001939,0.852452,0.434641,0.133031,0.258295,0.042126,-0.040328
242,85884812771582,0.037201,8.034317,5.811111,4.485856,8.620016,-1.973094,-0.032928,0.016708,0.018738,-0.018117,0.034036,-0.015095,0.852469,0.434569,0.133022,0.258364,0.042148,-0.040647
243,85884817715429,0.013855,8.028931,5.857193,4.464029,8.662328,-1.951177,-0.027603,0.026306,0.009155,-0.008328,0.029242,-0.024765,0.852484,0.434496,0.133047,0.258422,0.04217,-0.040965
244,85884822659277,-0.0466,8.069031,5.952972,4.436359,8.779229,-1.947606,-0.016953,0.034821,0.00383,0.005276,0.025635,-0.028802,0.852491,0.434435,0.133106,0.258473,0.04219,-0.041285
245,85884827603125,-0.105865,8.083405,5.985291,4.395363,8.831759,-1.963962,-0.003098,0.036957,0.000626,0.01799,0.019583,-0.025859,0.852485,0.434398,0.133184,0.258514,0.042208,-0.041606
246,85884832546972,-0.157333,8.1241,5.987686,4.375525,8.870289,-2.012682,0.009689,0.034821,0.000626,0.027429,0.014382,-0.018644,0.852466,0.43439,0.133268,0.258547,0.042223,-0.041916
247,85884837460303,-0.177094,8.132477,5.997253,4.364145,8.888281,-2.021953,0.023529,0.026306,0.005966,0.034174,0.010043,-0.003532,0.852432,0.434418,0.133339,0.258576,0.042236,-0.042236
248,85884842404150,-0.153748,8.138474,5.960144,4.387684,8.852975,-2.038304,0.038452,0.022049,0.013412,0.044181,0.00914,0.010447,0.852377,0.434484,0.133401,0.258612,0.042247,-0.042553
249,85884847317480,-0.140579,8.160614,5.893707,4.412114,8.804849,-2.087857,0.048035,0.019913,0.019806,0.050933,0.010159,0.01997,0.852308,0.434578,0.133459,0.258656,0.042256,-0.042867
250,85884852291845,-0.12561,8.166,5.792557,4.429089,8.719607,-2.145846,0.048035,0.015656,0.027267,0.048542,0.014123,0.027207,0.852231,0.434682,0.1335,0.258711,0.042263,-0.043175
251,85884857205176,-0.068146,8.150436,5.747665,4.469741,8.655804,-2.137381,0.042709,0.012451,0.032593,0.04232,0.018603,0.030072,0.852158,0.43478,0.133523,0.258776,0.042261,-0.043463
252,85884862149023,-0.008896,8.191147,5.68602,4.54326,8.604955,-2.177004,0.038452,0.006058,0.031525,0.035228,0.016006,0.03181,0.852058,0.434939,0.133542,0.258828,0.042258,-0.043751
253,85884867092871,0.053955,8.18396,5.645309,4.593321,8.546321,-2.170579,0.028854,-0.001389,0.033661,0.023109,0.01723,0.033715,0.851961,0.435099,0.133518,0.25889,0.042256,-0.044032
254,85884872036719,0.065323,8.156418,5.623169,4.588804,8.510287,-2.16085,0.015015,-0.003525,0.031525,0.010436,0.018955,0.027631,0.851919,0.435156,0.133485,0.258948,0.042254,-0.044309
255,85884876980566,0.077301,8.14386,5.638733,4.592902,8.512151,-2.138272,9.2e-05,-0.006714,0.028336,-0.003721,0.019669,0.02115,0.851897,0.435182,0.133438,0.259001,0.042253,-0.044586
256,85884881893896,0.041977,8.094772,5.668655,4.537199,8.523461,-2.103627,-0.01268,-0.009918,0.026199,-0.016103,0.02053,0.016271,0.851893,0.43518,0.133381,0.25905,0.042253,-0.044863
257,85884886807226,0.035995,8.125305,5.735687,4.550221,8.594165,-2.087054,-0.02121,-0.009918,0.027267,-0.023182,0.024172,0.013039,0.851898,0.435157,0.133316,0.259104,0.042255,-0.04514
258,85884891781592,0.046173,8.121109,5.831467,4.557223,8.666035,-2.022895,-0.022278,-0.012054,0.026199,-0.025254,0.022616,0.01337,0.851908,0.435129,0.133245,0.259155,0.042258,-0.04542
259,85884896878027,-0.002914,8.128891,5.833862,4.521924,8.687283,-2.048457,-0.022278,-0.018433,0.029388,-0.02881,0.022096,0.019532,0.851919,0.435106,0.133154,0.259205,0.042262,-0.045704
260,85884901760840,0.009064,8.116913,5.855408,4.526344,8.69445,-2.022113,-0.019073,-0.024826,0.032593,-0.029711,0.020538,0.027163,0.851925,0.435094,0.133057,0.259255,0.042266,-0.045993
261,85884906826758,0.028809,8.136078,5.881134,4.554687,8.717529,-2.010928,-0.015884,-0.026962,0.034714,-0.028249,0.02018,0.03129,0.851928,0.43509,0.132948,0.259307,0.04227,-0.046288
262,85884911648535,0.058746,8.118713,5.930222,4.571043,8.738403,-1.957108,-0.010559,-0.029099,0.034714,-0.025011,0.017405,0.03514,0.851927,0.435096,0.132841,0.259353,0.042274,-0.046589
263,85884916500830,0.065323,8.151642,5.92244,4.596228,8.745132,-1.981462,-0.002029,-0.031219,0.037918,-0.019104,0.016189,0.042302,0.851916,0.435124,0.132731,0.259401,0.042277,-0.046893
264,85884921414160,0.11441,8.119919,5.842239,4.621007,8.647592,-1.985786,0.004364,-0.025894,0.043243,-0.010819,0.021012,0.044732,0.85189,0.435167,0.132628,0.259466,0.042279,-0.047203
265,85884926358008,0.106628,8.080414,5.872162,4.594497,8.653936,-1.945963,0.005432,-0.022705,0.049637,-0.008143,0.027399,0.046817,0.85186,0.43521,0.132524,0.259547,0.04228,-0.047515
266,85884931301855,0.15332,8.040298,5.847626,4.612826,8.59806,-1.913064,0.009689,-0.016312,0.046432,-0.001035,0.026523,0.04256,0.851824,0.435257,0.132438,0.259629,0.042279,-0.04784
267,85884936215185,0.195206,8.057068,5.821289,4.659056,8.569887,-1.921492,0.006485,-0.012054,0.049637,-0.001308,0.03224,0.040126,0.851788,0.435298,0.132353,0.259723,0.042276,-0.048144
268,85884941159033,0.208984,8.030731,5.832657,4.657825,8.560605,-1.891259,0.005432,-0.004593,0.04538,0.001986,0.032762,0.032135,0.851753,0.435329,0.132287,0.259817,0.042271,-0.048451
269,85884946072363,0.177856,8.000809,5.814102,4.617308,8.540099,-1.896204,0.004364,0.002869,0.044312,0.005269,0.035872,0.026005,0.851719,0.435352,0.132239,0.259917,0.042265,-0.048757
270,85884951046728,0.141937,7.941544,5.816498,4.556951,8.523709,-1.870967,0.002228,0.006058,0.043243,0.005286,0.037252,0.02227,0.85169,0.43536,0.132154,0.260041,0.042257,-0.049057
271,85884955990576,0.112015,7.885284,5.88533,4.503115,8.560931,-1.805474,0.004364,0.006058,0.041107,0.007066,0.034817,0.021986,0.851678,0.435336,0.132074,0.26016,0.042246,-0.049352
272,85884960934424,0.121597,7.850571,5.867981,4.493871,8.525847,-1.78729,0.005432,0.000732,0.040054,0.004987,0.031023,0.025438,0.851668,0.435316,0.131982,0.260271,0.042238,-0.049625
273,85884965878271,0.121597,7.811066,5.865585,4.473763,8.50385,-1.761438,0.005432,-0.004593,0.034714,0.002013,0.024108,0.025893,0.851668,0.435291,0.131883,0.260367,0.042227,-0.049896
274,85884970822119,0.138947,7.821243,5.841644,4.495609,8.482774,-1.774283,0.008621,-0.009918,0.031525,0.001686,0.017888,0.029046,0.851662,0.435286,0.131776,0.26045,0.042213,-0.050162
275,85884975765967,0.142532,7.80986,5.851212,4.493722,8.483066,-1.759253,0.010757,-0.014175,0.024063,0.00107,0.009072,0.0285,0.851662,0.43528,0.131667,0.260513,0.042195,-0.050424
276,85884980709814,0.116211,7.821838,5.875748,4.479641,8.516896,-1.764753,0.013947,-0.018433,0.016617,0.001324,-7.8e-05,0.028437,0.851668,0.435275,0.131569,0.260551,0.042173,-0.050686
277,85884985649946,0.106628,7.836197,5.860794,4.480201,8.514586,-1.787706,0.015015,-0.022705,0.008087,-0.000196,-0.009414,0.02679,0.851678,0.435277,0.131477,0.260562,0.042146,-0.050947
278,85884990502241,0.11441,7.896652,5.809921,4.520535,8.499786,-1.855736,0.017136,-0.030151,0.002762,-0.002604,-0.018038,0.029634,0.851676,0.435315,0.131384,0.260551,0.042113,-0.051211
279,85884995446088,0.085083,7.936157,5.785965,4.518058,8.508929,-1.911137,0.019272,-0.038681,-0.000427,-0.005596,-0.025461,0.034471,0.851671,0.435374,0.131293,0.260514,0.042075,-0.051478
280,85885000389936,0.076706,7.951126,5.766815,4.51812,8.5036,-1.938507,0.023529,-0.038681,-0.003632,-0.00206,-0.029457,0.034512,0.851684,0.435451,0.131175,0.260403,0.042031,-0.051748
281,85885005516889,0.101837,8.00679,5.743469,4.570668,8.502709,-1.97976,0.025665,-0.034424,-0.003632,0.002087,-0.028091,0.03261,0.851649,0.43552,0.131137,0.260422,0.041981,-0.052023
282,85885010338667,0.113815,8.049286,5.70517,4.604327,8.487686,-2.027874,0.026733,-0.021637,-0.000427,0.01012,-0.01964,0.026361,0.851606,0.435631,0.131092,0.260399,0.041927,-0.052304
283,85885015221479,0.115005,8.081009,5.684219,4.623273,8.48493,-2.06339,0.027802,-0.006714,0.000626,0.019334,-0.0119,0.017407,0.85155,0.435748,0.131081,0.260392,0.041868,-0.05259
284,85885020165327,0.123383,8.058853,5.694397,4.618458,8.478906,-2.040701,0.025665,0.002869,0.002762,0.022913,-0.00482,0.011239,0.851495,0.435849,0.131081,0.260402,0.041807,-0.052875
285,85885025109174,0.165878,8.067245,5.670456,4.659218,8.448605,-2.043236,0.023529,0.008194,0.004898,0.024118,0.000193,0.007939,0.851434,0.435954,0.131076,0.26043,0.041744,-0.053164
286,85885030053022,0.169479,8.092972,5.6483,4.677497,8.440869,-2.073868,0.018204,0.011383,0.007019,0.021486,0.005208,0.004632,0.851369,0.436059,0.131074,0.260466,0.041486,-0.054369
287,85885034996870,0.15451,8.115723,5.650696,4.678734,8.457802,-2.096251,0.01181,0.011383,0.007019,0.01618,0.007311,0.001751,0.851311,0.436152,0.131075,0.260501,0.041426,-0.054669
288,85885039910200,0.188034,8.096573,5.691406,4.697193,8.469641,-2.045364,0.002228,0.015656,0.007019,0.010613,0.012531,-0.005448,0.851268,0.436209,0.131062,0.260552,0.041426,-0.054669
289,85885044854047,0.166489,8.094772,5.692596,4.679278,8.476167,-2.053687,-0.005234,0.016708,0.004898,0.005001,0.013775,-0.01076,0.851236,0.436245,0.131057,0.260598,0.041426,-0.054669
290,85885049797895,0.123383,8.054077,5.730301,4.62161,8.500987,-2.023281,-0.013748,0.017776,0.001694,-0.00148,0.014497,-0.01719,0.851227,0.436238,0.131062,0.260637,0.041426,-0.054669
291,85885054741743,0.13176,8.039108,5.760239,4.620662,8.515259,-1.991204,-0.020142,0.012451,-0.005753,-0.009789,0.007991,-0.020836,0.851238,0.436207,0.131052,0.26066,0.04137,-0.054969
292,85885059685590,0.11441,8.028931,5.802734,4.600727,8.550789,-1.966202,-0.026535,0.003937,-0.010025,-0.019864,0.002518,-0.020474,0.851269,0.436151,0.131028,0.260665,0.041317,-0.055265
293,85885064598920,0.068924,8.073227,5.854202,4.587307,8.629561,-1.985116,-0.03186,-0.005661,-0.016418,-0.029667,-0.005551,-0.020142,0.851317,0.436078,0.131001,0.260641,0.041263,-0.055519
294,85885069542768,0.031815,8.070831,5.923035,4.554399,8.697405,-1.958116,-0.035049,-0.013107,-0.020676,-0.036486,-0.011555,-0.019052,0.851387,0.435977,0.130969,0.260597,0.041212,-0.055772
295,85885074486616,-0.02565,8.072632,5.987686,4.506653,8.770755,-1.945351,-0.03186,-0.020569,-0.018539,-0.037993,-0.014487,-0.011335,0.851467,0.435865,0.130936,0.260541,0.041164,-0.056023
296,85885079430463,-0.083115,8.092972,6.032578,4.468908,8.837166,-1.956635,-0.026535,-0.024826,-0.016418,-0.035937,-0.016589,-0.004829,0.851548,0.435753,0.130913,0.260474,0.041118,-0.056274
297,85885084374311,-0.121414,8.082199,6.082855,4.429526,8.886649,-1.935103,-0.02121,-0.030151,-0.01535,-0.034479,-0.020066,0.001779,0.851635,0.435637,0.13089,0.260397,0.041074,-0.056526
298,85885089287641,-0.138779,8.128296,6.091232,4.439265,8.922601,-1.967652,-0.010559,-0.033356,-0.007889,-0.02739,-0.019091,0.013101,0.851703,0.435553,0.130867,0.260325,0.041031,-0.056778
299,85885094200971,-0.145966,8.118118,6.093033,4.425434,8.92265,-1.962646,0.00116,-0.037613,-0.000427,-0.019997,-0.01898,0.025616,0.851772,0.435508,0.130807,0.260204,0.040989,-0.057032
300,85885099144819,-0.113037,8.092377,6.075073,4.438258,8.885009,-1.940203,0.01181,-0.037613,0.007019,-0.011125,-0.016459,0.034768,0.851793,0.435468,0.130804,0.260206,0.040947,-0.057288
301,85885103905561,-0.070541,8.080414,6.005646,4.465049,8.809645,-1.954309,0.02034,-0.038681,0.012344,-0.004605,-0.015477,0.042445,0.851835,0.435467,0.13073,0.260106,0.040904,-0.057545
302,85885109001997,-0.038818,8.06485,5.963745,4.48328,8.757211,-1.954739,0.026733,-0.047195,0.01767,-0.004016,-0.017399,0.054179,0.85182,0.435496,0.130683,0.26013,0.040861,-0.057803
303,85885113854292,0.022827,8.056473,5.954758,4.529974,8.725086,-1.928377,0.029922,-0.054657,0.018738,-0.005505,-0.021202,0.06127,0.851813,0.435561,0.130565,0.260104,0.040817,-0.058066
304,85885118798139,0.0354,8.035522,5.886536,4.528565,8.654957,-1.950897,0.032059,-0.059982,0.016617,-0.006688,-0.0262,0.06458,0.851798,0.435651,0.130438,0.260066,0.040772,-0.05833
305,85885123772504,0.067719,8.00679,5.879349,4.53937,8.624028,-1.923609,0.032059,-0.06424,0.011292,-0.009062,-0.032572,0.064335,0.851788,0.435742,0.130295,0.260018,0.040725,-0.058597
306,85885128746870,0.097656,8.0457,5.837448,4.585563,8.598489,-1.963985,0.03418,-0.066376,0.005966,-0.008494,-0.038611,0.063614,0.851768,0.43586,0.130151,0.259958,0.040677,-0.058867
307,85885133721235,0.123978,8.063644,5.808716,4.616795,8.574747,-1.984397,0.033127,-0.067444,-0.003632,-0.009989,-0.046547,0.058248,0.851749,0.435987,0.13001,0.259878,0.04063,-0.059137
308,85885138665083,0.156906,8.059464,5.845825,4.641558,8.591534,-1.947992,0.03418,-0.058914,-0.010025,-0.004388,-0.047931,0.049224,0.851734,0.436099,0.129879,0.259803,0.040582,-0.059412
309,85885143608930,0.145538,8.051086,5.838043,4.626579,8.584728,-1.954761,0.035248,-0.051468,-0.018539,0.000606,-0.051567,0.039693,0.851722,0.436205,0.129779,0.259715,0.040535,-0.059688
310,85885148552778,0.119797,8.099564,5.842834,4.630844,8.620593,-1.999157,0.03952,-0.046143,-0.027069,0.007084,-0.057299,0.033021,0.851707,0.436318,0.129714,0.259607,0.040489,-0.059965
311,85885153496626,0.077301,8.101959,5.84343,4.595184,8.636422,-2.022333,0.042709,-0.042938,-0.031326,0.011507,-0.060238,0.029799,0.851692,0.43643,0.129678,0.259485,0.040445,-0.060243
312,85885158440473,0.049164,8.154037,5.870361,4.598996,8.692985,-2.057463,0.050171,-0.037613,-0.033463,0.020673,-0.061834,0.028298,0.85167,0.436553,0.129671,0.259356,0.040404,-0.060521
313,85885163384321,0.043182,8.22287,5.867371,4.630488,8.725941,-2.111871,0.056564,-0.02803,-0.031326,0.031334,-0.057547,0.025942,0.851629,0.436697,0.129692,0.259236,0.040399,-0.060884
314,85885168328169,-0.038223,8.265961,5.838638,4.584801,8.750178,-2.19802,0.067215,-0.016312,-0.024933,0.046742,-0.050165,0.026537,0.851566,0.436865,0.129771,0.259122,0.040397,-0.061248
315,85885173241499,-0.06456,8.274933,5.794952,4.566221,8.727418,-2.24545,0.073608,-0.006714,-0.017471,0.057432,-0.04154,0.027285,0.851483,0.437053,0.129879,0.259025,0.040398,-0.061609
316,85885178185346,-0.098679,8.28392,5.754242,4.541506,8.709377,-2.294768,0.075729,-0.001389,-0.007889,0.062203,-0.031858,0.030248,0.851385,0.437254,0.130005,0.258945,0.040401,-0.06197
317,85885183129194,-0.120224,8.255783,5.711151,4.507045,8.66714,-2.314491,0.073608,0.005005,0.001694,0.064032,-0.020269,0.03058,0.851279,0.437452,0.130141,0.258888,0.040405,-0.062334
318,85885187950971,-0.109451,8.227051,5.660873,4.499507,8.608083,-2.323184,0.065079,0.006058,0.009155,0.057554,-0.010894,0.030409,0.851176,0.437638,0.130262,0.258852,0.040409,-0.062697
319,85885192864301,-0.112442,8.165405,5.671051,4.462806,8.586789,-2.279846,0.056564,0.005005,0.015549,0.049912,-0.003412,0.031039,0.851085,0.437795,0.130365,0.258833,0.040413,-0.063063
320,85885197838667,-0.111847,8.1241,5.654297,4.44065,8.552193,-2.263897,0.045898,-0.000336,0.020874,0.038097,0.00183,0.032981,0.851,0.437932,0.130452,0.258838,0.040417,-0.06343
321,85885202965620,-0.0867,8.077423,5.659683,4.435561,8.525275,-2.220285,0.035248,-0.007782,0.021942,0.02511,0.002592,0.03387,0.850937,0.438054,0.130497,0.258813,0.040421,-0.0638
322,85885207848432,-0.083115,8.039108,5.697388,4.417469,8.535927,-2.172164,0.022476,-0.019501,0.019806,0.007974,-0.000626,0.034839,0.850906,0.438122,0.130501,0.2588,0.040425,-0.064171
323,85885212731245,-0.057373,8.036118,5.699188,4.437135,8.527264,-2.158902,0.015015,-0.030151,0.01767,-0.004149,-0.005061,0.037469,0.850887,0.438182,0.130471,0.258777,0.040429,-0.064542
324,85885217675092,-0.04541,7.995407,5.70636,4.424311,8.509376,-2.123012,0.010757,-0.04187,0.015549,-0.014195,-0.011044,0.042274,0.850882,0.438231,0.130407,0.258743,0.040433,-0.064917
325,85885222618940,-0.051987,7.997803,5.74707,4.41996,8.545733,-2.104938,0.007553,-0.0504,0.014481,-0.021588,-0.014978,0.046005,0.85089,0.438265,0.130325,0.258699,0.040438,-0.065294
326,85885227562788,-0.04541,8.029526,5.751251,4.442616,8.562166,-2.122418,0.009689,-0.053589,0.014481,-0.021568,-0.017209,0.049132,0.850894,0.438312,0.130236,0.25865,0.040442,-0.065673
327,85885232506635,-0.048401,8.062454,5.74826,4.458183,8.57625,-2.149536,0.018204,-0.046143,0.018738,-0.010324,-0.012929,0.050378,0.85088,0.438381,0.130168,0.258614,0.040446,-0.066055
328,85885237450483,-0.066956,8.081009,5.734497,4.452983,8.579539,-2.180377,0.024597,-0.040802,0.025131,-0.002001,-0.007231,0.053339,0.850851,0.438466,0.130118,0.25859,0.04045,-0.06644
329,85885242394331,-0.048996,8.067841,5.687805,4.460869,8.528511,-2.192887,0.03418,-0.029099,0.030457,0.012494,-0.000374,0.052786,0.850798,0.438579,0.130089,0.258589,0.040452,-0.066829
330,85885247338178,9.2e-05,8.067841,5.672241,4.502649,8.498726,-2.182256,0.036316,-0.01738,0.034714,0.020793,0.008046,0.048259,0.850732,0.438698,0.130066,0.258617,0.040454,-0.06722
331,85885252251508,-0.002304,8.063049,5.623169,4.498991,8.456007,-2.21084,0.033127,-0.009918,0.040054,0.022307,0.01703,0.044861,0.850657,0.438819,0.130056,0.258662,0.040457,-0.067602
332,85885257195356,0.029419,8.055862,5.611191,4.522772,8.431135,-2.200852,0.028854,-0.00885,0.040054,0.019347,0.018943,0.042214,0.850584,0.438936,0.130034,0.258715,0.040458,-0.06799
333,85885262139204,0.091064,8.042694,5.616577,4.568328,8.407795,-2.162987,0.018204,-0.014175,0.03685,0.007519,0.017251,0.039193,0.850525,0.439034,0.129976,0.258771,0.040457,-0.068384
334,85885267083051,0.082092,8.001404,5.592636,4.53896,8.370404,-2.154285,0.006485,-0.020569,0.030457,-0.005812,0.0128,0.034571,0.850487,0.439106,0.129906,0.258809,0.040454,-0.06878
335,85885271996381,0.064133,7.985245,5.614792,4.515956,8.385931,-2.139248,-0.006287,-0.025894,0.025131,-0.019422,0.010074,0.029375,0.850474,0.43914,0.129828,0.258832,0.040448,-0.069183
336,85885276940229,0.05336,7.977463,5.674042,4.503502,8.433715,-2.104394,-0.019073,-0.032288,0.019806,-0.033638,0.00684,0.024905,0.850491,0.439131,0.129732,0.258842,0.040439,-0.06959
337,85885281884077,-0.0047,7.962494,5.688416,4.446825,8.457359,-2.111436,-0.026535,-0.039749,0.014481,-0.044016,0.001354,0.023549,0.850528,0.439095,0.12964,0.258825,0.040427,-0.07
338,85885286827924,-0.02446,7.938553,5.735092,4.416787,8.490808,-2.076224,-0.028671,-0.051468,0.008087,-0.052325,-0.00879,0.026855,0.850587,0.43904,0.129532,0.258781,0.040412,-0.07041
339,85885291771772,-0.008301,7.949921,5.773407,4.436066,8.522702,-2.053872,-0.025467,-0.055725,0.004898,-0.05203,-0.014485,0.029341,0.850648,0.438987,0.129412,0.258729,0.040393,-0.070818
340,85885296715620,-0.022064,7.965485,5.827271,4.432752,8.579147,-2.03849,-0.022278,-0.052521,0.002762,-0.047609,-0.015732,0.027354,0.850713,0.438924,0.129306,0.258675,0.04037,-0.071227
341,85885301628950,-0.022659,7.96489,5.830856,4.431066,8.582554,-2.035757,-0.013748,-0.049332,0.001694,-0.038741,-0.01786,0.028384,0.850769,0.438877,0.129213,0.258618,0.040345,-0.071633
342,85885306572797,-0.013077,7.979248,5.831467,4.446219,8.587285,-2.040657,-0.000961,-0.035477,-0.000427,-0.020435,-0.017102,0.023445,0.850806,0.43885,0.129158,0.25857,0.040318,-0.072036
343,85885311669233,0.005478,7.944534,5.812302,4.441725,8.549202,-2.020077,0.013947,-0.021637,-0.001495,-0.000364,-0.016182,0.020073,0.850822,0.438848,0.129133,0.258532,0.040289,-0.072435
344,85885316735151,0.002472,7.960098,5.769211,4.447042,8.522672,-2.05787,0.028854,-0.00885,-0.001495,0.019128,-0.014895,0.018037,0.85081,0.438884,0.129152,0.258501,0.040259,-0.072827
345,85885321526411,0.013855,7.984634,5.761429,4.470141,8.524216,-2.074669,0.041641,0.006058,-0.003632,0.038011,-0.013634,0.012375,0.850773,0.438928,0.129228,0.258511,0.040227,-0.073219
346,85885326378706,0.018036,8.010376,5.70517,4.48677,8.48946,-2.124467,0.051224,0.020981,-0.003632,0.054251,-0.009577,0.006514,0.850736,0.439001,0.129304,0.25847,0.040194,-0.07361
347,85885331200483,0.018646,8.014572,5.618378,4.488962,8.420155,-2.179465,0.056564,0.036957,-0.0047,0.067532,-0.004502,-0.00257,0.850655,0.439117,0.129446,0.258468,0.040159,-0.073997
348,85885336174848,0.031815,8.025345,5.568695,4.50576,8.379971,-2.211713,0.05336,0.048676,-0.003632,0.071359,0.003045,-0.011336,0.850562,0.439239,0.129613,0.258482,0.040123,-0.074382
349,85885341118696,0.056351,8.0457,5.496277,4.537463,8.321938,-2.258835,0.051224,0.055069,-0.002563,0.07313,0.007678,-0.016003,0.850456,0.439379,0.129787,0.258508,0.040085,-0.074766
350,85885346062544,0.079697,8.067841,5.438812,4.569244,8.277309,-2.298982,0.043777,0.061462,-0.007889,0.070443,0.008826,-0.026761,0.850347,0.439521,0.129972,0.258533,0.040045,-0.07515
351,85885351006391,0.092865,8.076218,5.420258,4.585207,8.261169,-2.311317,0.032059,0.064651,-0.010025,0.062451,0.012418,-0.035408,0.850247,0.439643,0.130156,0.258563,0.040004,-0.07553
352,85885355950239,0.089264,8.091782,5.431625,4.591195,8.278595,-2.31802,0.016083,0.064651,-0.014282,0.049139,0.014134,-0.045033,0.850167,0.439728,0.130333,0.258589,0.039961,-0.075913
353,85885360894087,0.060532,8.072021,5.407089,4.556307,8.258268,-2.332131,9.2e-05,0.064651,-0.01535,0.035839,0.018452,-0.052825,0.850106,0.439779,0.130513,0.258612,0.039917,-0.076296
354,85885365837934,0.076096,8.076218,5.461563,4.572075,8.299656,-2.295986,-0.015884,0.063583,-0.01535,0.021969,0.023125,-0.059273,0.85007,0.439783,0.130668,0.258645,0.039874,-0.076679
355,85885370781782,0.09166,8.099564,5.457367,4.598092,8.302506,-2.306534,-0.029724,0.059326,-0.017471,0.008097,0.023847,-0.063828,0.850047,0.439769,0.130804,0.258676,0.039832,-0.077062
356,85885375725629,0.089874,8.105545,5.536972,4.600433,8.371201,-2.263849,-0.039322,0.052933,-0.016418,-0.003416,0.024761,-0.06319,0.850048,0.439716,0.130912,0.258709,0.039784,-0.077396
357,85885380669477,0.104828,8.084,5.577072,4.601205,8.389178,-2.217283,-0.048904,0.045471,-0.016418,-0.015517,0.024302,-0.062429,0.850068,0.439634,0.130988,0.258743,0.039738,-0.077733
358,85885385582807,0.083878,8.055862,5.607605,4.568324,8.408033,-2.187366,-0.056366,0.04335,-0.01535,-0.022885,0.02659,-0.063728,0.850105,0.439522,0.131056,0.258778,0.039693,-0.078065
359,85885390526655,0.062927,8.074417,5.696182,4.561643,8.496751,-2.154825,-0.062759,0.042282,-0.012146,-0.028769,0.030782,-0.064022,0.850159,0.439375,0.131115,0.25882,0.039651,-0.078398
360,85885395439985,0.022232,8.036118,5.768616,4.506736,8.551655,-2.101211,-0.06488,0.040146,-0.010025,-0.031698,0.032194,-0.062293,0.850231,0.439194,0.131172,0.258861,0.039609,-0.078732
361,85885400383833,0.033005,8.00798,5.792557,4.500904,8.554819,-2.059002,-0.065948,0.038025,-0.007889,-0.033737,0.033285,-0.060093,0.850289,0.439005,0.131246,0.258955,0.039567,-0.079069
362,85885405266645,0.030609,8.015762,5.894913,4.502994,8.643841,-2.002601,-0.060623,0.0327,-0.0047,-0.032254,0.031608,-0.052222,0.850374,0.438839,0.131251,0.258954,0.039526,-0.079407
363,85885410241010,0.028214,7.973267,5.955368,4.477807,8.674389,-1.935035,-0.056366,0.029495,-0.001495,-0.030476,0.031314,-0.04626,0.850468,0.43862,0.131259,0.259012,0.039484,-0.079749
364,85885415215376,0.028809,7.957703,5.978699,4.469947,8.686634,-1.905944,-0.051041,0.0327,-0.001495,-0.024261,0.031144,-0.046024,0.850559,0.438403,0.131274,0.259073,0.039442,-0.080094
365,85885420159223,0.033005,7.970276,6.017014,4.480767,8.723364,-1.885862,-0.038254,0.038025,-0.003632,-0.010671,0.027823,-0.045105,0.850639,0.438202,0.131307,0.259134,0.039398,-0.080443
366,85885425103071,0.018646,7.961899,6.027786,4.464426,8.733575,-1.876164,-0.028671,0.04335,-0.002563,0.000268,0.028151,-0.043764,0.850709,0.438014,0.131359,0.259197,0.039354,-0.080792
367,85885430046919,-0.029251,7.96907,6.036163,4.428561,8.760375,-1.893657,-0.02121,0.045471,-0.0047,0.00765,0.025019,-0.043071,0.850774,0.437834,0.131439,0.259248,0.039308,-0.081147
368,85885434990766,-0.051987,7.960098,6.016418,4.404235,8.748341,-1.90589,-0.009491,0.042282,-0.007889,0.015612,0.017079,-0.037479,0.850828,0.437682,0.131533,0.259279,0.03926,-0.081506
369,85885439934614,-0.065155,8.001999,5.991272,4.416152,8.753208,-1.952046,-0.003098,0.040146,-0.006821,0.019746,0.01484,-0.032522,0.850866,0.437562,0.131634,0.259304,0.039211,-0.081868
370,85885444878462,-0.055588,8.042694,5.973923,4.446336,8.756298,-1.983214,0.004364,0.040146,-0.007889,0.025949,0.011545,-0.029772,0.85089,0.437472,0.131741,0.259324,0.03916,-0.082233
371,85885449822309,-0.053192,8.057068,5.890717,4.455794,8.69528,-2.039026,0.009689,0.038025,-0.006821,0.0292,0.009656,-0.025307,0.850893,0.437423,0.131852,0.259338,0.039107,-0.082599
372,85885454735639,-0.040024,8.110931,5.850616,4.496446,8.684676,-2.092106,0.007553,0.0327,-0.0047,0.02447,0.009507,-0.021431,0.850887,0.437399,0.13195,0.259351,0.039051,-0.082971
373,85885459679487,-0.034027,8.139069,5.826675,4.516938,8.676993,-2.121965,0.005432,0.02417,-0.001495,0.017968,0.008685,-0.014753,0.850876,0.43739,0.132027,0.259361,0.038993,-0.083345
374,85885464623335,-0.005295,8.159424,5.791367,4.552112,8.648788,-2.14311,-0.002029,0.017776,-0.000427,0.008214,0.008897,-0.013178,0.850866,0.437388,0.132078,0.259373,0.038933,-0.083722
375,85885469567182,0.011459,8.163605,5.752457,4.568358,8.613708,-2.16088,-0.010559,0.011383,0.000626,-0.002428,0.009445,-0.012097,0.850859,0.437386,0.132106,0.259383,0.03887,-0.084102
376,85885474511030,0.025818,8.155228,5.747665,4.575749,8.601108,-2.151176,-0.020142,0.003937,0.001694,-0.014532,0.009841,-0.010772,0.850864,0.437371,0.132107,0.259394,0.038819,-0.084456
377,85885479424360,0.017441,8.170792,5.759628,4.577605,8.621241,-2.157596,-0.036118,-0.002457,0.00383,-0.031357,0.013698,-0.012422,0.850887,0.437326,0.132084,0.259406,0.038765,-0.084809
378,85885484337690,0.046768,8.141464,5.836258,4.585983,8.660111,-2.078181,-0.046768,-0.00885,0.00383,-0.043763,0.014086,-0.012907,0.850936,0.437239,0.132023,0.259424,0.03871,-0.085165
379,85885489128950,0.052155,8.1259,5.869171,4.581953,8.678027,-2.043938,-0.055298,-0.016312,0.002762,-0.055007,0.012401,-0.012331,0.851001,0.437129,0.131939,0.259437,0.038652,-0.085522
380,85885494011762,0.043777,8.070236,5.921844,4.54394,8.697382,-1.976623,-0.060623,-0.022705,-0.001495,-0.063001,0.007595,-0.012887,0.851092,0.436982,0.131836,0.259439,0.038592,-0.085879
381,85885499077680,0.065323,8.067245,6.000854,4.559244,8.754257,-1.916033,-0.059555,-0.024826,-0.006821,-0.063311,0.001897,-0.014063,0.851213,0.436821,0.131693,0.259384,0.038531,-0.086233
382,85885504113081,0.037201,8.047485,6.060104,4.525465,8.802484,-1.877401,-0.053162,-0.022705,-0.007889,-0.056822,-2.3e-05,-0.013235,0.851296,0.436658,0.131612,0.259427,0.038469,-0.08659
383,85885509026411,0.01265,8.031326,6.085846,4.495401,8.824625,-1.859366,-0.039322,-0.018433,-0.012146,-0.042958,-0.005931,-0.012367,0.851398,0.436494,0.131539,0.259407,0.038406,-0.086945
384,85885513970258,0.026428,8.000809,6.157669,4.489331,8.864653,-1.787286,-0.026535,-0.010986,-0.014282,-0.028195,-0.008234,-0.012884,0.851498,0.436326,0.131479,0.259392,0.038341,-0.0873
385,85885518883588,-0.022064,7.972672,6.154678,4.43242,8.865497,-1.789044,-0.006287,-0.001389,-0.016418,-0.006035,-0.011934,-0.011496,0.851579,0.436184,0.131471,0.259369,0.038276,-0.087655
386,85885523857954,-0.013687,7.981049,6.157669,4.443131,8.870112,-1.787143,0.015015,0.008194,-0.018539,0.016994,-0.01597,-0.009615,0.851633,0.436084,0.131496,0.259346,0.03821,-0.088009
387,85885528801801,0.001282,7.988831,6.08345,4.458895,8.809414,-1.828182,0.033127,0.016708,-0.020676,0.036779,-0.019491,-0.008453,0.851654,0.436041,0.131553,0.259321,0.038143,-0.088363
388,85885533745649,-0.012482,7.985245,6.012817,4.444365,8.755391,-1.873231,0.048035,0.02417,-0.023865,0.053316,-0.023324,-0.008631,0.851649,0.436041,0.13165,0.259288,0.038074,-0.088716
389,85885538689497,-0.053192,8.015167,5.979904,4.425951,8.757017,-1.931475,0.058685,0.0327,-0.026001,0.066914,-0.024388,-0.01082,0.851626,0.436069,0.131792,0.259245,0.038006,-0.08907
390,85885543633344,-0.051987,8.066635,5.908081,4.454346,8.723605,-2.009041,0.066147,0.034821,-0.027069,0.074299,-0.026651,-0.009491,0.851578,0.436143,0.131952,0.259197,0.037937,-0.089421
391,85885548546674,-0.080124,8.081009,5.875153,4.437816,8.713197,-2.052427,0.07254,0.038025,-0.023865,0.081404,-0.024571,-0.00687,0.851516,0.436237,0.132131,0.259149,0.037867,-0.089775
392,85885553490522,-0.096878,8.080414,5.80513,4.422357,8.66161,-2.102681,0.073608,0.038025,-0.023865,0.082297,-0.024907,-0.006359,0.851444,0.436352,0.132322,0.259096,0.037798,-0.090127
393,85885558434370,-0.069946,8.098969,5.714752,4.454028,8.588317,-2.158476,0.070404,0.036957,-0.022797,0.079047,-0.023503,-0.006434,0.851359,0.436492,0.132507,0.259045,0.037729,-0.090483
394,85885563378217,-0.047806,8.142654,5.695587,4.496234,8.586324,-2.19175,0.059753,0.0327,-0.014282,0.067836,-0.015182,-0.003384,0.851273,0.436632,0.132661,0.259014,0.037661,-0.090839
395,85885568322065,-0.0448,8.16301,5.612396,4.509592,8.527087,-2.255685,0.05336,0.026306,-0.012146,0.058968,-0.014462,-0.000698,0.85118,0.436791,0.132802,0.258979,0.037593,-0.091196
396,85885573265913,-0.001709,8.151031,5.586655,4.538535,8.485711,-2.245978,0.042709,0.019913,-0.008957,0.046562,-0.011505,0.000667,0.851094,0.436941,0.132905,0.258955,0.03753,-0.091535
397,85885578209760,-0.034637,8.142059,5.605804,4.505849,8.507229,-2.245843,0.028854,0.014587,-0.007889,0.032089,-0.008715,-0.001381,0.851031,0.437054,0.132995,0.258927,0.037468,-0.091873
398,85885583153608,-0.010086,8.116913,5.536972,4.512167,8.430599,-2.260039,0.018204,0.007126,-0.002563,0.019088,-0.004541,0.00194,0.850969,0.437167,0.133052,0.258909,0.037409,-0.09221
399,85885588219526,-0.019669,8.12291,5.570496,4.507337,8.463537,-2.250537,0.006485,0.003937,-0.001495,0.007579,-0.001414,-0.000592,0.850927,0.437249,0.133093,0.258887,0.03735,-0.092547
400,85885593071821,0.004868,8.079803,5.608795,4.503662,8.465663,-2.188939,-0.002029,0.003937,-0.000427,0.000508,0.002214,-0.003826,0.850904,0.437295,0.13311,0.258878,0.037292,-0.092884
401,85885597863081,-0.009491,8.0858,5.581268,4.495585,8.450484,-2.215804,-0.010559,0.007126,0.002762,-0.0048,0.009114,-0.007988,0.850878,0.437319,0.133138,0.258906,0.037235,-0.09322
402,85885602806928,-0.011292,8.083405,5.641724,4.492659,8.498954,-2.180457,-0.01268,0.008194,0.00383,-0.005967,0.011185,-0.009049,0.850862,0.437351,0.133154,0.258897,0.037179,-0.093553
403,85885607750776,0.01326,8.067841,5.652496,4.504719,8.492069,-2.152492,-0.013748,0.01033,0.00383,-0.005663,0.012564,-0.010976,0.850852,0.437354,0.133169,0.258918,0.037125,-0.093882
404,85885612694624,0.021637,8.062454,5.652496,4.509036,8.486585,-2.144955,-0.01268,0.013519,0.002762,-0.002998,0.01289,-0.013267,0.850841,0.437356,0.133188,0.258941,0.037072,-0.09421
405,85885617638471,0.07431,8.069031,5.636337,4.556962,8.45922,-2.135134,-0.009491,0.016708,-0.000427,0.001428,0.010804,-0.015832,0.850821,0.437374,0.133203,0.258969,0.03702,-0.094535
406,85885622582319,0.064728,8.087585,5.620178,4.559735,8.457819,-2.161888,-0.004166,0.020981,-0.003632,0.008233,0.008534,-0.018169,0.850792,0.437407,0.133239,0.25899,0.036968,-0.094858
407,85885627526167,0.031815,8.06485,5.629745,4.519798,8.465181,-2.156165,-0.000961,0.025238,-0.008957,0.01327,0.00522,-0.022689,0.850768,0.43743,0.133301,0.258999,0.036916,-0.095178
408,85885632470014,0.044373,8.082809,5.571091,4.54042,8.42182,-2.197352,9.2e-05,0.030563,-0.008957,0.017115,0.007448,-0.025806,0.850729,0.437474,0.133377,0.259012,0.036864,-0.095496
409,85885637413862,0.021637,8.095978,5.557922,4.529144,8.424513,-2.224917,0.004364,0.039093,-0.006821,0.02542,0.011917,-0.028383,0.85068,0.437526,0.13348,0.259032,0.036811,-0.095813
410,85885642357710,0.059341,8.094772,5.532181,4.560289,8.390293,-2.222766,0.004364,0.04335,-0.006821,0.0278,0.013967,-0.031255,0.850624,0.437586,0.133581,0.259064,0.036758,-0.096128
411,85885647301557,0.07132,8.1241,5.50705,4.58704,8.379663,-2.252541,0.00116,0.049744,-0.011093,0.028716,0.014607,-0.039508,0.850564,0.437648,0.133696,0.259094,0.036705,-0.096444
412,85885652245405,0.050964,8.130692,5.502853,4.574036,8.385802,-2.269065,-0.004166,0.058258,-0.017471,0.029061,0.015242,-0.051378,0.850512,0.437691,0.13384,0.259119,0.03665,-0.09676
413,85885657189253,0.035995,8.131882,5.545349,4.562371,8.425888,-2.251403,-0.016953,0.06572,-0.019608,0.022632,0.021237,-0.063465,0.850479,0.437688,0.133995,0.259151,0.036595,-0.097078
414,85885662133100,-0.020264,8.148041,5.586655,4.524564,8.485932,-2.26251,-0.026535,0.072113,-0.020676,0.018274,0.026553,-0.072752,0.850463,0.437646,0.134175,0.259182,0.036541,-0.097378
415,85885667046430,-0.068146,8.169586,5.646515,4.496453,8.561245,-2.262052,-0.03186,0.074234,-0.021744,0.015067,0.028434,-0.077221,0.850462,0.437573,0.134368,0.259209,0.036485,-0.097682
416,85885671990278,-0.121414,8.158813,5.677032,4.445605,8.599094,-2.258713,-0.038254,0.074234,-0.021744,0.009791,0.03051,-0.080126,0.850476,0.43747,0.134572,0.25923,0.036428,-0.097989
417,85885676934126,-0.140579,8.173187,5.781784,4.437072,8.698533,-2.213062,-0.040375,0.071045,-0.01535,0.006263,0.034872,-0.075219,0.850504,0.437338,0.134759,0.259264,0.036371,-0.098297
418,85885681877973,-0.195038,8.152832,5.856598,4.379882,8.768379,-2.176841,-0.043579,0.06572,-0.007889,0.000633,0.039424,-0.068745,0.850549,0.437174,0.134935,0.259303,0.036314,-0.098609
419,85885686791303,-0.20163,8.146255,5.871567,4.370503,8.780526,-2.162979,-0.043579,0.056137,0.001694,-0.004736,0.042603,-0.056709,0.850593,0.437015,0.135079,0.259351,0.036257,-0.098921
420,85885691613081,-0.196838,8.144455,5.908676,4.373453,8.809111,-2.134447,-0.040375,0.046539,0.010223,-0.007464,0.043876,-0.043815,0.850636,0.436864,0.13519,0.259408,0.0362,-0.099239
421,85885696434858,-0.207016,8.154633,5.932022,4.370896,8.836991,-2.128998,-0.038254,0.036957,0.01767,-0.011084,0.04462,-0.032056,0.850677,0.436721,0.135276,0.259468,0.036143,-0.099561
422,85885701287153,-0.175888,8.138474,5.964935,4.389179,8.845886,-2.081218,-0.033997,0.025238,0.026199,-0.014134,0.044515,-0.017258,0.85069,0.436586,0.135368,0.259603,0.036086,-0.099886
423,85885706505659,-0.179474,8.116318,5.937408,4.373774,8.814538,-2.08175,-0.029724,0.015656,0.033661,-0.015986,0.044563,-0.004506,0.850746,0.436478,0.135346,0.259615,0.036028,-0.100215
424,85885711388471,-0.149551,8.107346,5.905685,4.395083,8.774544,-2.078251,-0.028671,0.009262,0.044312,-0.018726,0.049786,0.006485,0.850766,0.436386,0.135332,0.25971,0.03597,-0.100545
425,85885716332319,-0.080719,8.077423,5.875153,4.437342,8.712437,-2.042592,-0.028671,0.001801,0.048569,-0.02291,0.049635,0.013989,0.850781,0.436311,0.135274,0.259819,0.035913,-0.100878
426,85885721276167,-0.017273,8.072632,5.897903,4.489415,8.707285,-1.995308,-0.03186,-0.006714,0.052826,-0.030321,0.050008,0.020748,0.850798,0.436237,0.135168,0.259941,0.035857,-0.101219
427,85885726250532,-0.032242,8.092377,5.841034,4.490378,8.674774,-2.046977,-0.037186,-0.009918,0.051758,-0.036511,0.049322,0.019858,0.850814,0.436172,0.135064,0.260053,0.035801,-0.10156
428,85885731224897,0.008469,8.058258,5.821884,4.507255,8.628692,-2.015001,-0.041443,-0.014175,0.050705,-0.042404,0.047794,0.020176,0.850834,0.436103,0.134937,0.260168,0.035746,-0.101905
429,85885736168745,0.026428,8.044495,5.864975,4.516566,8.650478,-1.970407,-0.046768,-0.016312,0.050705,-0.047996,0.048498,0.019199,0.850868,0.436013,0.134792,0.260286,0.035692,-0.102253
430,85885741112592,0.015045,8.056473,5.897903,4.515861,8.686149,-1.962173,-0.051041,-0.021637,0.049637,-0.054502,0.046451,0.020226,0.850912,0.435909,0.134638,0.260395,0.035639,-0.102603
431,85885746056440,0.050964,8.04509,5.928421,4.54123,8.693137,-1.918041,-0.049973,-0.024826,0.04538,-0.055381,0.04111,0.020393,0.850962,0.435801,0.134467,0.2605,0.035586,-0.102956
432,85885751000288,0.083878,8.034912,5.9422,4.565003,8.687953,-1.885977,-0.048904,-0.02803,0.046432,-0.056278,0.040071,0.023671,0.851012,0.435697,0.134277,0.26061,0.035533,-0.103292
433,85885755944135,0.11142,8.081604,5.956558,4.616285,8.712407,-1.894531,-0.045715,-0.02803,0.04538,-0.053619,0.038185,0.024532,0.851054,0.435608,0.134084,0.26072,0.035481,-0.10363
434,85885760887983,0.120987,8.091782,5.984085,4.632201,8.735683,-1.87918,-0.039322,-0.025894,0.044312,-0.04711,0.03627,0.025404,0.851091,0.435526,0.133897,0.260829,0.035428,-0.103967
435,85885765831831,0.142532,8.089981,5.990677,4.651482,8.732109,-1.862857,-0.03186,-0.022705,0.044312,-0.039127,0.035378,0.026676,0.851119,0.435459,0.133715,0.260943,0.035376,-0.104306
436,85885770775678,0.161697,8.070831,5.996658,4.659026,8.720379,-1.836537,-0.025467,-0.021637,0.041107,-0.033218,0.031205,0.027005,0.851144,0.435401,0.133535,0.261053,0.035323,-0.104644
437,85885775689008,0.196411,8.06485,5.958359,4.686792,8.673908,-1.838394,-0.016953,-0.015244,0.035782,-0.022572,0.027194,0.023476,0.851153,0.435368,0.133373,0.26116,0.03527,-0.10498
438,85885780632856,0.214966,8.073822,5.935013,4.709464,8.652058,-1.849342,-0.008423,-0.007782,0.030457,-0.011317,0.023692,0.019229,0.851149,0.435358,0.133234,0.261262,0.035218,-0.105313
439,85885785576704,0.204788,8.055862,5.932022,4.692841,8.643313,-1.843423,-0.000961,-0.001389,0.020874,-0.001555,0.016566,0.012718,0.851143,0.435352,0.133128,0.261347,0.035168,-0.105642
440,85885790490034,0.178452,8.042694,5.939194,4.665029,8.650749,-1.84198,0.003296,0.005005,0.011292,0.005548,0.010493,0.004748,0.85114,0.43534,0.133057,0.261412,0.035118,-0.10597
441,85885795372846,0.17366,8.00798,5.928421,4.642364,8.626413,-1.82687,0.005432,0.008194,0.004898,0.009099,0.00615,-0.000168,0.851146,0.435326,0.132992,0.261446,0.03507,-0.106293
442,85885800347212,0.121597,8.003799,5.896698,4.597848,8.61537,-1.865972,0.010757,0.008194,-0.002563,0.013498,-0.001653,-0.00212,0.851142,0.435317,0.132955,0.261495,0.035024,-0.106612
443,85885805321577,0.083878,7.961304,5.90448,4.54289,8.613469,-1.849996,0.015015,0.013519,-0.008957,0.020001,-0.00566,-0.007507,0.851141,0.435317,0.132948,0.261499,0.03498,-0.106927
444,85885810234907,0.0737,7.967285,5.901489,4.537804,8.617395,-1.859955,0.017136,0.019913,-0.012146,0.02534,-0.005846,-0.012704,0.851142,0.435301,0.132979,0.261508,0.03494,-0.107237
445,85885815178754,0.048569,7.984634,5.886536,4.526417,8.622151,-1.891578,0.022476,0.02417,-0.016418,0.032145,-0.009005,-0.015636,0.851136,0.435297,0.133038,0.261504,0.034905,-0.107541
446,85885820122602,0.004272,7.988235,5.881134,4.491204,8.634398,-1.917272,0.029922,0.027374,-0.018539,0.040108,-0.011622,-0.015641,0.851124,0.435303,0.133128,0.261489,0.034873,-0.10784
447,85885825066450,-0.005295,7.973862,5.862579,4.474528,8.615823,-1.923162,0.037384,0.028427,-0.020676,0.046877,-0.015298,-0.014201,0.851104,0.435325,0.133229,0.261466,0.034845,-0.108134
448,85885830010297,-0.005905,7.998413,5.839844,4.486951,8.609683,-1.954241,0.044846,0.020981,-0.022797,0.048878,-0.023074,-0.007044,0.851074,0.435377,0.133326,0.261427,0.03482,-0.108421
449,85885834954145,-0.015472,8.00679,5.771011,4.482886,8.561093,-2.006232,0.050171,0.017776,-0.020676,0.051492,-0.024652,-0.001219,0.851028,0.435464,0.133426,0.261382,0.034799,-0.108698
450,85885839897993,0.009659,8.018158,5.710556,4.509485,8.509047,-2.040107,0.05336,0.016708,-0.017471,0.053536,-0.023613,0.002836,0.850965,0.435581,0.133519,0.261343,0.034781,-0.10897
451,85885844841840,0.003677,8.058853,5.66806,4.526835,8.495886,-2.097553,0.050171,0.017776,-0.016418,0.051498,-0.021189,0.001295,0.850895,0.435711,0.133619,0.261304,0.034768,-0.109232
452,85885849785688,0.006073,8.089981,5.632736,4.545914,8.481044,-2.140571,0.044846,0.019913,-0.014282,0.048291,-0.016672,-0.001304,0.85082,0.435844,0.13372,0.261273,0.034757,-0.10949
453,85885854699018,0.015045,8.135468,5.598022,4.578698,8.471343,-2.18993,0.038452,0.023102,-0.011093,0.04479,-0.010444,-0.004486,0.85074,0.435982,0.133823,0.261252,0.034748,-0.109742
454,85885859642866,-0.029846,8.113327,5.591446,4.529009,8.469538,-2.201416,0.028854,0.022049,-0.0047,0.036256,-0.002617,-0.004411,0.85067,0.436095,0.133925,0.261239,0.034744,-0.109971
455,85885864556196,-0.04361,8.109146,5.574677,4.515174,8.458018,-2.216369,0.017136,0.016708,-0.001495,0.02356,0.001244,-0.004289,0.850612,0.436188,0.134011,0.261228,0.03474,-0.110197
456,85885869530561,-0.023849,8.122314,5.580673,4.538736,8.462476,-2.214245,0.003296,0.01033,0.00383,0.008526,0.00702,-0.003206,0.850573,0.436265,0.13405,0.261208,0.034735,-0.110425
457,85885874474409,-0.028046,8.119919,5.628555,4.534322,8.501211,-2.187201,-0.009491,0.006058,0.011292,-0.004455,0.015204,-0.001813,0.850545,0.436301,0.134072,0.261227,0.034726,-0.110657
458,85885879418256,-0.059769,8.137268,5.668655,4.518126,8.552379,-2.189929,-0.022278,-0.000336,0.014481,-0.018626,0.018894,-0.001487,0.850537,0.436305,0.134078,0.261245,0.034713,-0.110895
459,85885884362104,-0.071747,8.150436,5.712357,4.516026,8.598045,-2.178288,-0.029724,-0.005661,0.019806,-0.027777,0.023087,0.001804,0.850541,0.436286,0.134063,0.26127,0.034695,-0.111143
460,85885889183881,-0.052582,8.136078,5.76442,4.524722,8.62691,-2.128462,-0.039322,-0.009918,0.030457,-0.038107,0.032829,0.006507,0.850557,0.436239,0.134012,0.261321,0.034672,-0.111402
461,85885894158247,-0.049591,8.094177,5.793747,4.504753,8.629312,-2.080369,-0.043579,-0.016312,0.034714,-0.045214,0.034598,0.011356,0.850587,0.436171,0.133932,0.261381,0.034644,-0.11167
462,85885899132612,-0.011887,8.081009,5.813507,4.529207,8.626595,-2.041537,-0.046768,-0.024826,0.033661,-0.052628,0.030679,0.015022,0.850628,0.436104,0.133826,0.261412,0.034611,-0.111953
463,85885904076460,0.026428,8.075027,5.867371,4.558871,8.654539,-1.987081,-0.048904,-0.033356,0.033661,-0.059178,0.027266,0.019795,0.850666,0.436029,0.133702,0.261477,0.034574,-0.112246
464,85885909020307,0.018646,8.064255,5.895508,4.547462,8.674533,-1.965345,-0.048904,-0.045074,0.033661,-0.065747,0.021609,0.02769,0.850724,0.435941,0.133528,0.261522,0.034533,-0.11255
465,85885913964155,0.048569,8.06604,5.926025,4.574262,8.690178,-1.933423,-0.049973,-0.047195,0.029388,-0.067816,0.017471,0.026155,0.85079,0.435847,0.133341,0.261562,0.03449,-0.112862
466,85885918908003,0.076096,8.058853,5.951767,4.593974,8.698386,-1.899441,-0.047836,-0.052521,0.026199,-0.06903,0.011609,0.028865,0.850859,0.435754,0.133137,0.261594,0.034445,-0.113181
467,85885923851850,0.105423,8.047485,5.919449,4.612744,8.656771,-1.896281,-0.040375,-0.049332,0.021942,-0.061062,0.007244,0.027644,0.850917,0.435684,0.132941,0.261622,0.034398,-0.113503
468,85885928765180,0.119202,8.044495,5.928421,4.623428,8.657831,-1.881519,-0.036118,-0.035477,0.01767,-0.049767,0.009079,0.017782,0.850968,0.435612,0.132779,0.261658,0.03435,-0.113831
469,85885933709028,0.135956,8.037918,5.94519,4.63471,8.662428,-1.858435,-0.026535,-0.019501,0.015549,-0.032872,0.011928,0.010165,0.851008,0.435546,0.13265,0.261706,0.034301,-0.11416
470,85885938652876,0.186829,8.021149,5.955368,4.668533,8.645444,-1.816942,-0.015884,-0.003525,0.007019,-0.01511,0.009228,-0.000727,0.851036,0.435488,0.132552,0.26176,0.034253,-0.114489
471,85885943596723,0.198212,8.006195,5.9422,4.670435,8.623556,-1.808167,-0.009491,0.014587,-0.002563,0.000321,0.008113,-0.015605,0.851056,0.435431,0.132503,0.261813,0.034204,-0.114821
472,85885948510053,0.184433,7.98703,5.912872,4.648716,8.595052,-1.817478,9.2e-05,0.033752,-0.014282,0.01898,0.004722,-0.030995,0.851066,0.435381,0.132519,0.261856,0.034155,-0.11515
473,85885953484419,0.144333,7.968475,5.923035,4.60513,8.607874,-1.815771,0.007553,0.048676,-0.024933,0.033511,0.000849,-0.043867,0.851075,0.435323,0.132596,0.261884,0.034102,-0.115473
474,85885958428266,0.104233,7.939743,5.927826,4.555189,8.611789,-1.810188,0.01181,0.055069,-0.036652,0.040609,-0.006953,-0.053085,0.851091,0.435254,0.132712,0.261887,0.034048,-0.115797
475,85885963372114,0.034805,7.960693,5.956558,4.508177,8.669218,-1.837243,0.019272,0.061462,-0.047302,0.050372,-0.01494,-0.060216,0.85111,0.435183,0.132881,0.26186,0.033991,-0.116122
476,85885968315962,0.007263,7.971466,5.949982,4.489662,8.679395,-1.859464,0.026733,0.062515,-0.053696,0.057151,-0.02206,-0.061263,0.851123,0.435126,0.133073,0.261813,0.033933,-0.116448
477,85885973259809,-0.017868,7.975067,5.940399,4.468698,8.683005,-1.877914,0.032059,0.05719,-0.060089,0.058588,-0.03156,-0.058997,0.851137,0.435082,0.133273,0.261741,0.033871,-0.116776
478,85885978173139,-0.063965,7.991226,5.924835,4.436994,8.694873,-1.91826,0.036316,0.049744,-0.064346,0.057955,-0.040003,-0.054541,0.851149,0.435054,0.13348,0.261642,0.033806,-0.117101
479,85885983116987,-0.111847,8.034912,5.918854,4.418941,8.728464,-1.972809,0.041641,0.042282,-0.065414,0.058201,-0.04622,-0.047718,0.851155,0.435048,0.133696,0.261521,0.033738,-0.117426
480,85885987938764,-0.149551,8.074417,5.872757,4.406695,8.724124,-2.044152,0.046967,0.034821,-0.067551,0.058452,-0.053303,-0.041518,0.851152,0.435073,0.133916,0.261378,0.033667,-0.11775
481,85885992791059,-0.181274,8.073227,5.833862,4.376354,8.703899,-2.081682,0.051224,0.031631,-0.064346,0.060212,-0.053631,-0.03554,0.851149,0.435113,0.134117,0.261216,0.033595,-0.118071
482,85885997643354,-0.210007,8.133682,5.797348,4.383887,8.714078,-2.157906,0.056564,0.028427,-0.059021,0.062854,-0.052603,-0.027811,0.851122,0.435169,0.134344,0.261097,0.033522,-0.118386
483,85886002739790,-0.239929,8.167801,5.783585,4.375271,8.730264,-2.204527,0.056564,0.028427,-0.050507,0.062866,-0.045681,-0.022797,0.85108,0.435262,0.134588,0.260953,0.033449,-0.1187
484,85886007744672,-0.253098,8.171387,5.748856,4.363895,8.708838,-2.23551,0.056564,0.02417,-0.038788,0.06047,-0.038223,-0.013059,0.851028,0.435368,0.134813,0.260828,0.033374,-0.119009
485,85886012719038,-0.274048,8.183365,5.704575,4.351418,8.685916,-2.281403,0.05336,0.023102,-0.023865,0.057193,-0.025572,-0.005059,0.850964,0.435486,0.135028,0.26073,0.033299,-0.119315
486,85886017693403,-0.28064,8.204315,5.64711,4.356427,8.651601,-2.334705,0.049103,0.019913,-0.011093,0.051848,-0.015352,0.002615,0.850888,0.43562,0.135226,0.260653,0.033222,-0.119614
487,85886022637251,-0.259689,8.216278,5.617783,4.379849,8.626408,-2.352918,0.03952,0.011383,0.005966,0.039075,-0.002504,0.013924,0.850808,0.435756,0.135376,0.260608,0.033144,-0.119913
488,85886027550581,-0.261475,8.218674,5.599823,4.379662,8.612936,-2.368304,0.028854,0.001801,0.02301,0.02481,0.010177,0.025419,0.850729,0.435886,0.135483,0.260591,0.033066,-0.120206
489,85886032494428,-0.207611,8.209702,5.607605,4.419627,8.596522,-2.335427,0.018204,-0.012054,0.033661,0.008182,0.015593,0.036051,0.850659,0.436007,0.135521,0.260597,0.032987,-0.120497
490,85886037438276,-0.150146,8.22287,5.601624,4.475534,8.578232,-2.323755,0.004364,-0.02803,0.043243,-0.012266,0.020159,0.04602,0.850598,0.436123,0.135487,0.26062,0.032907,-0.120786
491,85886042382124,-0.069351,8.215088,5.586655,4.539588,8.534643,-2.29243,-0.01268,-0.045074,0.052826,-0.035953,0.025259,0.055248,0.85055,0.436227,0.135369,0.260665,0.032827,-0.121073
492,85886047325971,0.008469,8.213287,5.556122,4.605064,8.482019,-2.275392,-0.030792,-0.055725,0.059219,-0.056912,0.031219,0.057851,0.850512,0.436319,0.135186,0.26073,0.032747,-0.12136
493,85886052269819,0.068314,8.208496,5.586655,4.654109,8.483369,-2.228549,-0.043579,-0.062119,0.061356,-0.071056,0.034053,0.057566,0.85049,0.436385,0.134956,0.260808,0.032666,-0.121645
494,85886057183149,0.082092,8.20491,5.621964,4.665736,8.504325,-2.200239,-0.055298,-0.066376,0.061356,-0.08311,0.035841,0.055103,0.850487,0.43642,0.134705,0.260889,0.032584,-0.12194
495,85886062126997,0.116806,8.169586,5.670456,4.677012,8.51398,-2.132526,-0.06488,-0.063187,0.059219,-0.089215,0.038795,0.047377,0.850505,0.436414,0.134439,0.260982,0.032502,-0.122236
496,85886067070844,0.165878,8.156418,5.708755,4.712874,8.521331,-2.078512,-0.069138,-0.053589,0.057098,-0.087319,0.043122,0.037787,0.850528,0.436383,0.134172,0.261092,0.032421,-0.122534
497,85886072014692,0.168869,8.108536,5.778793,4.691028,8.553068,-2.002628,-0.072342,-0.039749,0.050705,-0.082178,0.045681,0.023331,0.85057,0.436305,0.133931,0.261209,0.032339,-0.122834
498,85886076958540,0.207184,8.131882,5.850616,4.738539,8.609103,-1.956983,-0.071274,-0.025894,0.04538,-0.073499,0.047719,0.011431,0.850616,0.436208,0.133709,0.261338,0.032258,-0.123136
499,85886081871870,0.21077,8.081604,5.921249,4.715761,8.640251,-1.877647,-0.06488,-0.010986,0.035782,-0.059831,0.045046,-0.001253,0.85067,0.436082,0.133524,0.261465,0.032176,-0.123437
500,85886086785200,0.199997,8.021149,5.971527,4.674945,8.654999,-1.809372,-0.055298,0.005005,0.02301,-0.042928,0.039271,-0.015079,0.850731,0.435935,0.133389,0.261581,0.032093,-0.123743
501,85886091637495,0.188034,8.004395,6.034973,4.657193,8.702244,-1.762969,-0.043579,0.020981,0.009155,-0.02427,0.031908,-0.028566,0.850794,0.435776,0.133308,0.261682,0.032007,-0.124051
502,85886096611860,0.146133,8.015762,6.096024,4.629925,8.771294,-1.750298,-0.028671,0.035889,-0.001495,-0.00357,0.02558,-0.038016,0.850854,0.435614,0.133291,0.261767,0.031919,-0.124363
503,85886101586225,0.122192,8.015762,6.127747,4.61048,8.805413,-1.739193,-0.011627,0.047607,-0.01535,0.017104,0.014408,-0.046229,0.850905,0.435465,0.133331,0.261827,0.031829,-0.124677
504,85886106438520,0.059937,7.967285,6.135529,4.531458,8.809585,-1.727137,0.005432,0.059326,-0.024933,0.037803,0.0067,-0.051931,0.85095,0.435324,0.133431,0.261864,0.031738,-0.124996
505,85886111473920,-0.001709,7.969681,6.154083,4.480866,8.847152,-1.743071,0.022476,0.063583,-0.033463,0.054304,-0.003754,-0.052007,0.850986,0.435202,0.133586,0.261872,0.031645,-0.125319
506,85886116448286,-0.048401,8.007385,6.137924,4.461934,8.868798,-1.797266,0.042709,0.064651,-0.040909,0.071656,-0.01592,-0.047847,0.851,0.435128,0.133781,0.261848,0.031551,-0.125645
507,85886121392133,-0.110641,8.050476,6.097824,4.433313,8.878181,-1.878702,0.055496,0.06572,-0.043045,0.082852,-0.021337,-0.043956,0.850954,0.435174,0.134004,0.261809,0.031457,-0.125974
508,85886126335981,-0.197433,8.084,6.067291,4.37907,8.898586,-1.959849,0.066147,0.064651,-0.040909,0.091076,-0.023617,-0.037095,0.850895,0.435244,0.134234,0.261767,0.031363,-0.126305
509,85886131279829,-0.227966,8.095367,6.049927,4.35917,8.900192,-1.993178,0.073608,0.063583,-0.034515,0.096655,-0.021392,-0.029195,0.850823,0.435334,0.134461,0.261734,0.031269,-0.126637
510,85886136193159,-0.281235,8.107941,6.011032,4.321468,8.892122,-2.050727,0.079987,0.05719,-0.026001,0.098334,-0.019665,-0.01698,0.850742,0.435444,0.134672,0.261708,0.031177,-0.126968
511,85886141137006,-0.294403,8.135468,5.906876,4.325795,8.824829,-2.138589,0.081055,0.041214,-0.014282,0.090217,-0.018226,0.001096,0.850653,0.435576,0.134841,0.261688,0.031087,-0.127296
512,85886146080854,-0.291412,8.157623,5.870361,4.340522,8.804339,-2.176331,0.079987,0.022049,-0.006821,0.078539,-0.021077,0.017835,0.850567,0.435723,0.134961,0.261663,0.030997,-0.127592
513,85886151024702,-0.288422,8.162415,5.814697,4.345775,8.7597,-2.213776,0.074661,0.003937,0.00383,0.063926,-0.019427,0.033771,0.850484,0.435876,0.135028,0.261642,0.030825,-0.128174
514,85886155968549,-0.28363,8.110336,5.795547,4.320775,8.716498,-2.190872,0.065079,-0.014175,0.015549,0.045796,-0.01551,0.048375,0.85041,0.436024,0.135039,0.26163,0.030825,-0.128174
515,85886160881879,-0.255493,8.152832,5.771606,4.368589,8.707283,-2.223533,0.055496,-0.032288,0.026199,0.027672,-0.012455,0.062352,0.850345,0.436169,0.134993,0.261625,0.030742,-0.128461
516,85886165825727,-0.208206,8.140869,5.723724,4.401741,8.646012,-2.2247,0.043777,-0.046143,0.032593,0.010193,-0.010099,0.070014,0.850291,0.436304,0.134901,0.261622,0.030662,-0.128745
517,85886170769575,-0.153137,8.093582,5.691406,4.421675,8.577714,-2.189346,0.03418,-0.057846,0.040054,-0.004313,-0.006527,0.07783,0.850246,0.436429,0.134767,0.261628,0.030583,-0.129027
518,85886175713422,-0.097473,8.100754,5.657883,4.472932,8.534408,-2.190927,0.024597,-0.070633,0.047501,-0.019407,-0.003488,0.086381,0.85021,0.436547,0.134591,0.26164,0.030507,-0.129309
519,85886180657270,9.2e-05,8.079803,5.640518,4.543169,8.47689,-2.14489,0.013947,-0.081284,0.052826,-0.034168,-0.00079,0.091783,0.850184,0.436653,0.134374,0.261657,0.030432,-0.129592
520,85886185601118,0.018646,8.081604,5.640518,4.560767,8.470428,-2.13993,0.004364,-0.088745,0.051758,-0.046248,-0.002098,0.091817,0.850172,0.436743,0.134135,0.261668,0.030359,-0.129876
521,85886190422895,0.061142,8.097168,5.593842,4.605756,8.424905,-2.16032,-0.004166,-0.09407,0.050705,-0.056256,-0.002708,0.090915,0.85017,0.436821,0.133887,0.261674,0.030286,-0.130166
522,85886195427778,0.100647,8.097168,5.657883,4.63886,8.46322,-2.10731,-0.01268,-0.090881,0.054962,-0.06145,0.005087,0.087401,0.850195,0.43689,0.133587,0.261629,0.030216,-0.130458
523,85886200371626,0.135361,8.095367,5.644119,4.66922,8.438117,-2.099026,-0.015884,-0.080231,0.057098,-0.05809,0.013018,0.080035,0.850177,0.436924,0.133379,0.261737,0.030148,-0.130757
524,85886205315473,0.188034,8.084595,5.643524,4.708554,8.41388,-2.069203,-0.016953,-0.068512,0.058151,-0.05236,0.019875,0.072293,0.850176,0.436961,0.133158,0.261793,0.030082,-0.131061
525,85886210259321,0.226929,8.06485,5.660873,4.731635,8.404387,-2.028947,-0.015884,-0.057846,0.057098,-0.045462,0.023808,0.065,0.85017,0.436992,0.132955,0.261861,0.030018,-0.131369
526,85886215203169,0.253876,8.016968,5.681229,4.729207,8.387738,-1.973069,-0.015884,-0.042938,0.057098,-0.03707,0.030985,0.054971,0.850161,0.437012,0.132782,0.261945,0.029958,-0.131679
527,85886220147016,0.262848,7.998413,5.663864,4.728178,8.36057,-1.966797,-0.015884,-0.029099,0.051758,-0.029301,0.033305,0.042546,0.850151,0.437022,0.132643,0.262033,0.029901,-0.131993
528,85886225090864,0.290985,7.981644,5.66626,4.743995,8.344069,-1.941364,-0.011627,-0.01738,0.046432,-0.019205,0.033211,0.033487,0.850136,0.43703,0.132536,0.262123,0.029846,-0.132309
529,85886230034712,0.305939,7.988235,5.689011,4.76178,8.359888,-1.925614,-0.010559,-0.007782,0.03685,-0.012961,0.029687,0.021924,0.850122,0.437031,0.13246,0.262202,0.029795,-0.132624
530,85886234978559,0.299362,7.973267,5.66925,4.749154,8.338154,-1.929705,-0.010559,0.001801,0.026199,-0.007617,0.025638,0.009262,0.850113,0.437023,0.132415,0.26227,0.029745,-0.13294
531,85886239891889,0.279602,7.930176,5.700378,4.709576,8.348918,-1.890934,-0.010559,0.009262,0.014481,-0.003473,0.019703,-0.002594,0.85011,0.437003,0.132399,0.26232,0.029696,-0.133256
532,85886244835737,0.259857,7.948135,5.745865,4.7039,8.400986,-1.884714,-0.010559,0.016708,0.001694,0.000658,0.012892,-0.015063,0.850114,0.436973,0.132413,0.262351,0.029646,-0.13357
533,85886249779585,0.185638,7.960098,5.829666,4.64967,8.499499,-1.876622,-0.011627,0.019913,-0.0047,0.00155,0.009591,-0.021434,0.850124,0.436931,0.132444,0.262372,0.029595,-0.133885
534,85886254723432,0.13237,7.952911,5.84523,4.601363,8.526639,-1.885983,-0.009491,0.019913,-0.012146,0.003289,0.002838,-0.024804,0.850138,0.43689,0.132486,0.262374,0.029549,-0.134215
535,85886259667280,0.086868,7.951126,5.917053,4.562375,8.59966,-1.8628,-0.005234,0.016708,-0.019608,0.004982,-0.006169,-0.025063,0.850155,0.436853,0.132533,0.262356,0.029501,-0.134543
536,85886264611128,0.063538,7.981049,5.96553,4.559221,8.661667,-1.864879,0.00116,0.011383,-0.022797,0.00727,-0.013429,-0.020431,0.85017,0.436831,0.132578,0.262322,0.029447,-0.134873
537,85886269524458,0.040192,8.013962,5.958954,4.557428,8.680355,-1.90145,0.007553,0.007126,-0.023865,0.010165,-0.018453,-0.015281,0.850179,0.436825,0.13262,0.262279,0.029387,-0.135203
538,85886274468305,0.008469,7.997208,5.950577,4.520907,8.676313,-1.909938,0.015015,0.000732,-0.019608,0.012763,-0.020532,-0.0051,0.850181,0.436841,0.132651,0.262235,0.029321,-0.135534
539,85886279412153,0.006668,8.018753,5.907471,4.530594,8.652449,-1.951283,0.02034,-0.007782,-0.01535,0.012402,-0.022922,0.005537,0.850175,0.436876,0.132664,0.262187,0.029249,-0.135867
540,85886284325483,0.007263,8.056473,5.901489,4.551485,8.665648,-1.98116,0.023529,-0.016312,-0.014282,0.010256,-0.027205,0.013355,0.850167,0.436926,0.132661,0.262133,0.029171,-0.1362
541,85886289238813,0.011459,8.037308,5.874557,4.543328,8.633238,-1.983506,0.024597,-0.023758,-0.012146,0.006969,-0.029399,0.020102,0.850159,0.436983,0.13264,0.262074,0.029088,-0.136531
542,85886294030073,0.058746,8.02475,5.802734,4.574604,8.553175,-1.996973,0.023529,-0.029099,-0.006821,0.00311,-0.027285,0.02632,0.850148,0.437045,0.132601,0.262023,0.028998,-0.136863
543,85886299034956,0.077896,8.009186,5.768616,4.579826,8.512071,-1.999984,0.019272,-0.037613,-0.005753,-0.005175,-0.029104,0.030747,0.850168,0.437119,0.132499,0.261889,0.028904,-0.137193
544,85886304009321,0.116211,7.959503,5.745865,4.58421,8.456546,-1.963184,0.012878,-0.040802,-0.003632,-0.01225,-0.026804,0.03123,0.850147,0.43716,0.132461,0.261909,0.028805,-0.137521
545,85886308983686,0.144333,7.922989,5.740479,4.5864,8.425395,-1.930112,0.005432,-0.042938,-0.005753,-0.019613,-0.027101,0.028056,0.850159,0.437196,0.132374,0.261852,0.028703,-0.137846
546,85886313927534,0.15451,7.945129,5.700974,4.606231,8.400841,-1.964323,-0.002029,-0.040802,-0.013214,-0.024614,-0.029681,0.018887,0.850182,0.437216,0.132295,0.261784,0.028598,-0.13817
547,85886318871381,0.185043,7.918793,5.690201,4.615515,8.369911,-1.939467,-0.009491,-0.036545,-0.022797,-0.028439,-0.032968,0.00705,0.850218,0.437214,0.132228,0.261704,0.028489,-0.138496
548,85886323815229,0.143738,7.895462,5.778198,4.56709,8.444621,-1.8912,-0.013748,-0.02803,-0.031326,-0.02722,-0.034407,-0.005591,0.850264,0.43719,0.132187,0.261616,0.028378,-0.138818
549,85886328759077,0.083282,7.943344,5.790756,4.541975,8.49885,-1.943344,-0.01268,-0.016312,-0.043045,-0.019808,-0.03865,-0.019839,0.850313,0.437156,0.132188,0.261514,0.028265,-0.139142
550,85886333702924,0.044373,7.943344,5.831467,4.507862,8.545882,-1.936922,-0.007355,-0.004593,-0.047302,-0.008839,-0.038225,-0.027809,0.850355,0.437122,0.132222,0.261413,0.028148,-0.139468
551,85886338646772,-0.015472,7.936157,5.848221,4.45232,8.57683,-1.949199,0.00116,0.007126,-0.04837,0.004785,-0.036254,-0.032473,0.850387,0.437097,0.132291,0.261319,0.028029,-0.139797
552,85886343590620,-0.020859,7.954117,5.86319,4.455918,8.600494,-1.954912,0.010757,0.018845,-0.051559,0.019302,-0.036357,-0.037879,0.850406,0.437083,0.132394,0.261227,0.027907,-0.140127
553,85886348503950,-0.041214,7.98764,5.851212,4.455795,8.614603,-1.993804,0.018204,0.025238,-0.051559,0.029066,-0.035721,-0.038805,0.850415,0.437081,0.132516,0.261139,0.027782,-0.140463
554,85886353447797,-0.083115,8.008575,5.796753,4.430196,8.595456,-2.058638,0.025665,0.026306,-0.051559,0.035864,-0.037648,-0.036131,0.850426,0.437074,0.132677,0.261033,0.027657,-0.140803
555,85886358391645,-0.08371,8.025345,5.768021,4.436584,8.58155,-2.087332,0.029922,0.026306,-0.051559,0.03941,-0.039036,-0.034186,0.850427,0.437087,0.132844,0.260924,0.027531,-0.141145
556,85886363335493,-0.104065,8.048691,5.782379,4.430378,8.612276,-2.104449,0.029922,0.019913,-0.04837,0.035855,-0.039516,-0.028007,0.850429,0.437104,0.132999,0.260812,0.027411,-0.141474
557,85886368248823,-0.108856,8.095978,5.757248,4.450618,8.617141,-2.153947,0.027802,0.015656,-0.041977,0.03174,-0.035671,-0.022367,0.850421,0.437137,0.133143,0.260707,0.027295,-0.141802
558,85886373192670,-0.119034,8.16301,5.739883,4.477623,8.639429,-2.215003,0.023529,0.009262,-0.035583,0.024639,-0.032154,-0.016266,0.850407,0.437185,0.133272,0.260605,0.027181,-0.142131
559,85886378136518,-0.114243,8.127701,5.703369,4.460002,8.591794,-2.211431,0.018204,0.001801,-0.028137,0.016066,-0.027954,-0.009316,0.850395,0.437233,0.133373,0.260513,0.027071,-0.142458
560,85886383049848,-0.115433,8.095367,5.683014,4.439266,8.560692,-2.202839,0.008621,-0.002457,-0.023865,0.005751,-0.023404,-0.008312,0.850393,0.437264,0.133453,0.260429,0.026962,-0.142782
561,85886387871626,-0.093292,8.082199,5.697388,4.448973,8.559372,-2.17593,-0.000961,-0.007782,-0.017471,-0.005162,-0.017646,-0.005357,0.8504,0.437275,0.133498,0.260363,0.026856,-0.1431
562,85886392876508,-0.081909,8.067841,5.768021,4.449241,8.606855,-2.119703,-0.009491,-0.013107,-0.014282,-0.015208,-0.014839,-0.003791,0.850428,0.437251,0.133511,0.260305,0.026748,-0.143417
563,85886397698286,-0.140579,8.021149,5.773407,4.372887,8.608694,-2.111646,-0.013748,-0.014175,-0.011093,-0.01933,-0.011376,-0.003149,0.850469,0.437226,0.133498,0.260219,0.026638,-0.143732
564,85886402916792,-0.136383,8.015762,5.823685,4.372722,8.646253,-2.075578,-0.018005,-0.014175,-0.007889,-0.022857,-0.007385,-0.003222,0.850502,0.437163,0.133531,0.260202,0.026527,-0.144044
565,85886407799604,-0.166916,8.040298,5.872162,4.359916,8.708403,-2.076365,-0.014816,-0.013107,-0.005753,-0.019614,-0.006175,-0.00125,0.850552,0.437086,0.133551,0.260154,0.026414,-0.144352
566,85886412682417,-0.159729,8.052277,5.891922,4.371812,8.728607,-2.068376,-0.005234,-0.007782,-0.0047,-0.008692,-0.005872,0.000128,0.850586,0.437022,0.133593,0.260133,0.026299,-0.144657
567,85886417626264,-0.175888,8.04509,5.889526,4.353466,8.729151,-2.071265,0.003296,-0.002457,-0.003632,0.001358,-0.005212,0.001039,0.850611,0.436972,0.13365,0.260103,0.026186,-0.144958
568,85886422600629,-0.176483,8.015167,5.871567,4.33522,8.70093,-2.061315,0.015015,0.001801,-0.003632,0.013455,-0.006971,0.003499,0.850626,0.436945,0.133718,0.260065,0.026072,-0.145257
569,85886427544477,-0.156143,8.080414,5.853012,4.387758,8.711084,-2.107075,0.024597,0.003937,-0.002563,0.022593,-0.008187,0.007043,0.850618,0.436957,0.133794,0.260031,0.02596,-0.145554
570,85886432488325,-0.088501,8.075027,5.783585,4.440418,8.629983,-2.114213,0.033127,0.006058,-0.001495,0.03085,-0.009067,0.010119,0.850587,0.437013,0.13386,0.260007,0.025851,-0.145848
571,85886437432172,-0.046005,8.107346,5.710556,4.493511,8.572008,-2.16117,0.03952,0.006058,-0.002563,0.03615,-0.012011,0.012411,0.850532,0.437114,0.133923,0.259983,0.025745,-0.146141
572,85886442376020,-0.054977,8.166,5.638733,4.518547,8.544336,-2.249202,0.041641,0.009262,-0.005753,0.039702,-0.013742,0.009368,0.85046,0.437247,0.134011,0.259949,0.025643,-0.146433
573,85886447319868,-0.026855,8.194138,5.516022,4.557632,8.448132,-2.329837,0.036316,0.015656,-0.002563,0.038862,-0.006329,0.004495,0.850368,0.437409,0.134107,0.259928,0.025543,-0.146735
574,85886452233198,-0.014282,8.213882,5.466949,4.579313,8.412753,-2.368766,0.023529,0.019913,-0.000427,0.030643,0.001613,-0.002954,0.850277,0.437561,0.134202,0.259921,0.025447,-0.14704
575,85886457177045,-0.029846,8.232437,5.441208,4.576939,8.405071,-2.405637,0.01181,0.028427,-0.002563,0.025696,0.007777,-0.015276,0.850193,0.437691,0.134318,0.259918,0.025354,-0.147349
576,85886462120893,-0.028046,8.210892,5.462753,4.566599,8.411188,-2.378944,-0.005234,0.038025,-0.002563,0.016946,0.017923,-0.029521,0.85013,0.437768,0.134439,0.259933,0.025264,-0.147662
577,85886467064741,-0.019669,8.192932,5.507645,4.563757,8.436202,-2.336938,-0.022278,0.04335,-0.003632,0.005811,0.025138,-0.041509,0.850092,0.437788,0.134552,0.259963,0.025176,-0.147978
578,85886471978071,-0.063965,8.146255,5.570496,4.500901,8.479542,-2.288058,-0.036118,0.041214,-0.003632,-0.006844,0.028597,-0.046386,0.850087,0.437749,0.134658,0.25999,0.02509,-0.1483
579,85886476921919,-0.117233,8.112732,5.652496,4.437675,8.548131,-2.239957,-0.047836,0.034821,-0.002563,-0.020126,0.030192,-0.046805,0.850115,0.437653,0.134752,0.260013,0.025006,-0.148625
580,85886481865766,-0.145355,8.098969,5.697983,4.40618,8.588586,-2.214326,-0.057419,0.025238,-0.001495,-0.033428,0.029558,-0.044102,0.850165,0.437525,0.134823,0.260028,0.024923,-0.148952
581,85886486748579,-0.194443,8.082809,5.817688,4.355481,8.695407,-2.152833,-0.061691,0.01033,-0.000427,-0.045317,0.024634,-0.035386,0.850244,0.437357,0.134864,0.260028,0.024841,-0.14928
582,85886491570356,-0.211197,8.091782,5.874557,4.345817,8.752644,-2.130018,-0.059555,-0.000336,0.005966,-0.049535,0.024005,-0.023507,0.850328,0.437189,0.13488,0.260028,0.02476,-0.149606
583,85886496605756,-0.239334,8.110336,5.979904,4.331924,8.8577,-2.09039,-0.05423,-0.010986,0.010223,-0.051099,0.020603,-0.011423,0.850425,0.437007,0.134872,0.260024,0.02468,-0.149932
584,85886501580122,-0.251907,8.069641,6.014618,4.29767,8.871482,-2.045744,-0.044647,-0.022705,0.01767,-0.049742,0.017887,0.005182,0.850516,0.436862,0.134825,0.259994,0.0246,-0.150257
585,85886506554487,-0.189651,8.091187,6.02121,4.361255,8.867696,-2.025256,-0.028671,-0.031219,0.024063,-0.04129,0.013782,0.02193,0.850583,0.436731,0.134788,0.260013,0.024522,-0.15058
586,85886511528852,-0.146561,8.142059,5.954163,4.425973,8.823804,-2.077956,-0.013748,-0.032288,0.030457,-0.029535,0.013617,0.033187,0.850614,0.436684,0.134712,0.26003,0.024444,-0.150901
587,85886516442182,-0.084915,8.130692,5.917648,4.471563,8.768228,-2.063291,-0.002029,-0.029099,0.033661,-0.018041,0.013957,0.038258,0.850622,0.436675,0.134629,0.260061,0.024367,-0.151219
588,85886521386030,-0.023254,8.138474,5.873367,4.528377,8.715141,-2.066841,0.007553,-0.026962,0.03685,-0.008904,0.014472,0.043049,0.850606,0.436707,0.134536,0.260108,0.024287,-0.151538
589,85886526329878,0.037201,8.165405,5.736893,4.595393,8.596263,-2.138631,0.012878,-0.019501,0.03685,-0.000305,0.016352,0.040454,0.850555,0.436797,0.134455,0.260165,0.024206,-0.151856
590,85886531243208,0.097656,8.139069,5.689606,4.632613,8.52402,-2.122624,0.008621,-0.015244,0.034714,-0.001436,0.018061,0.034402,0.850502,0.436888,0.134365,0.260232,0.024121,-0.152178
591,85886536187055,0.128174,8.158813,5.684814,4.670859,8.518297,-2.126368,0.003296,-0.00885,0.031525,-0.002255,0.020291,0.025811,0.85045,0.436972,0.134279,0.260306,0.024033,-0.152502
592,85886541130903,0.15152,8.160019,5.657883,4.692758,8.488052,-2.133434,-0.007355,-0.004593,0.027267,-0.008683,0.022353,0.015609,0.850406,0.437039,0.134195,0.260382,0.023941,-0.15283
593,85886546074751,0.140747,8.142654,5.667465,4.675695,8.489966,-2.121573,-0.019073,-0.001389,0.021942,-0.016587,0.023386,0.005012,0.85038,0.43707,0.134118,0.260452,0.023847,-0.153163
594,85886551018598,0.158096,8.160019,5.739288,4.701102,8.550445,-2.083216,-0.033997,-0.005661,0.014481,-0.031336,0.020126,-0.00325,0.850385,0.437054,0.13402,0.260513,0.02375,-0.153498
595,85886555931928,0.141937,8.137268,5.776993,4.675951,8.575123,-2.052229,-0.045715,-0.009918,0.009155,-0.043425,0.017569,-0.008813,0.850416,0.436998,0.133914,0.260561,0.023653,-0.153831
596,85886560875776,0.134155,8.12291,5.836258,4.662365,8.618835,-2.009862,-0.053162,-0.014175,0.009155,-0.051977,0.017954,-0.009327,0.850467,0.436908,0.133791,0.260608,0.023555,-0.154167
597,85886565789106,0.143143,8.115128,5.867371,4.666249,8.637435,-1.980562,-0.055298,-0.020569,0.007019,-0.057328,0.013841,-0.007223,0.850528,0.436809,0.133651,0.260647,0.023456,-0.154507
598,85886570732954,0.113815,8.100754,5.966736,4.634455,8.721087,-1.923935,-0.05423,-0.026962,0.004898,-0.060025,0.008691,-0.003654,0.850609,0.436681,0.133501,0.260674,0.023357,-0.154849
599,85886575676801,0.103638,8.125305,6.000259,4.640245,8.763757,-1.923304,-0.047836,-0.026962,0.004898,-0.054727,0.006606,-0.000734,0.850686,0.436561,0.133359,0.260697,0.023259,-0.155192
600,85886580620649,0.122787,8.114532,5.970917,4.650695,8.728453,-1.922935,-0.035049,-0.024826,0.007019,-0.042934,0.005181,0.004886,0.850742,0.436477,0.133224,0.260724,0.023163,-0.155537
601,85886585564497,0.102432,8.108536,6.035568,4.630995,8.784824,-1.888844,-0.02121,-0.016312,0.002762,-0.026704,0.001308,0.002961,0.850794,0.436394,0.133122,0.260747,0.023069,-0.155884
602,85886590630415,0.120392,8.054672,6.012817,4.616333,8.7344,-1.856332,-0.007355,-0.006714,-0.001495,-0.009855,-0.002048,0.000307,0.850828,0.436327,0.133053,0.260783,0.022979,-0.156231
603,85886595482710,0.15271,8.056473,5.951172,4.644716,8.674397,-1.878267,0.005432,0.005005,-0.005753,0.007296,-0.004032,-0.004262,0.850836,0.436301,0.133013,0.260818,0.022891,-0.156577
604,85886600273969,0.155701,8.073822,5.945786,4.657112,8.677366,-1.891534,0.015015,0.014587,-0.011093,0.020594,-0.006878,-0.00948,0.850842,0.436291,0.132994,0.260828,0.022808,-0.156921
605,85886605278852,0.138351,8.051086,5.921249,4.630095,8.652077,-1.898457,0.023529,0.020981,-0.018539,0.031219,-0.012625,-0.014265,0.850834,0.436296,0.133011,0.260837,0.022727,-0.157265
606,85886610222700,0.113205,8.031921,5.88353,4.598192,8.620557,-1.919163,0.027802,0.027374,-0.024933,0.038334,-0.016126,-0.020357,0.850821,0.436309,0.133068,0.260829,0.022649,-0.15761
607,85886615166547,0.083878,8.031326,5.891922,4.573073,8.636936,-1.927253,0.033127,0.034821,-0.028137,0.046917,-0.016872,-0.024815,0.850805,0.43632,0.133156,0.260816,0.022575,-0.157953
608,85886620110395,0.048569,8.063049,5.902084,4.560911,8.67243,-1.958766,0.035248,0.041214,-0.030258,0.052259,-0.016196,-0.029381,0.850786,0.436332,0.133274,0.260798,0.022503,-0.158294
609,85886625054243,0.047974,7.992416,5.88353,4.520182,8.62386,-1.92196,0.032059,0.044418,-0.030258,0.05142,-0.0136,-0.032975,0.850775,0.436324,0.133394,0.260786,0.022432,-0.158637
610,85886629998090,0.010254,7.973862,5.893112,4.477808,8.635532,-1.920472,0.032059,0.044418,-0.028137,0.05143,-0.011872,-0.031725,0.850768,0.436307,0.133521,0.260773,0.022363,-0.158979
611,85886634911420,-0.010696,7.930771,5.850021,4.43551,8.587109,-1.925581,0.027802,0.039093,-0.026001,0.044928,-0.011313,-0.028822,0.850765,0.436287,0.13364,0.260756,0.022295,-0.159323
612,85886639855268,-0.007095,7.907425,5.852417,4.424534,8.57722,-1.906028,0.021408,0.031631,-0.027069,0.035457,-0.01369,-0.02733,0.850774,0.436252,0.133736,0.260733,0.022227,-0.159668
613,85886644799116,0.005478,7.881683,5.833862,4.41943,8.546326,-1.893121,0.016083,0.018845,-0.031326,0.023888,-0.021582,-0.023636,0.850796,0.436215,0.133802,0.260692,0.022159,-0.160017
614,85886649712446,0.013855,7.838593,5.824875,4.400764,8.516327,-1.865023,0.01181,-0.001389,-0.036652,0.009018,-0.034291,-0.015085,0.850834,0.436175,0.133823,0.260622,0.022092,-0.160367
615,85886654686811,0.033005,7.80867,5.805725,4.39818,8.481013,-1.846969,0.006485,-0.01738,-0.040909,-0.004343,-0.043742,-0.009243,0.850886,0.436134,0.133805,0.260531,0.022022,-0.160725
616,85886659630659,0.047974,7.802689,5.774597,4.405322,8.448993,-1.854161,0.002228,-0.026962,-0.046234,-0.013226,-0.051313,-0.007848,0.850944,0.436099,0.133766,0.260421,0.021963,-0.161079
617,85886664574506,0.049164,7.832611,5.768616,4.420909,8.459341,-1.877297,0.002228,-0.029099,-0.051559,-0.014409,-0.056673,-0.009522,0.851001,0.436072,0.13373,0.260297,0.021901,-0.161438
618,85886669518354,0.021027,7.883484,5.78717,4.423559,8.509484,-1.913596,0.004364,-0.025894,-0.056885,-0.010828,-0.060144,-0.013818,0.851057,0.436048,0.133719,0.260159,0.021836,-0.161802
619,85886674462202,0.016251,7.931961,5.82428,4.444159,8.565936,-1.926838,0.008621,-0.018433,-0.059021,-0.003109,-0.059653,-0.018151,0.851108,0.436027,0.13373,0.260023,0.021766,-0.162167
620,85886679406049,-0.012482,8.00679,5.800339,4.459478,8.593384,-2.004903,0.016083,-0.010986,-0.061157,0.00726,-0.06021,-0.021015,0.85114,0.436036,0.133781,0.259878,0.021693,-0.162531
621,85886684349897,-0.058578,8.040909,5.788361,4.43762,8.616422,-2.056613,0.022476,0.000732,-0.059021,0.019128,-0.054875,-0.024739,0.851157,0.436057,0.133876,0.259739,0.021616,-0.162897
622,85886689263227,-0.094482,8.078018,5.778793,4.4261,8.639395,-2.104338,0.027802,0.014587,-0.053696,0.031298,-0.045563,-0.02852,0.851156,0.436088,0.134012,0.259618,0.021537,-0.163261
623,85886694176557,-0.094482,8.133087,5.757843,4.454917,8.649832,-2.154763,0.030991,0.02417,-0.044113,0.039296,-0.034168,-0.027911,0.851135,0.43614,0.134164,0.259523,0.021454,-0.163622
624,85886699120405,-0.129807,8.183365,5.709351,4.452619,8.646699,-2.233788,0.029922,0.028427,-0.033463,0.040776,-0.023105,-0.025033,0.851101,0.436187,0.134321,0.259473,0.021369,-0.163978
625,85886703911665,-0.138779,8.236633,5.70697,4.473494,8.67386,-2.276604,0.027802,0.026306,-0.022797,0.037814,-0.01478,-0.018339,0.851064,0.43626,0.134459,0.2594,0.021282,-0.164329
626,85886708886030,-0.098083,8.231247,5.66626,4.50374,8.624826,-2.279959,0.021408,0.018845,-0.011093,0.028314,-0.006816,-0.009398,0.851009,0.436352,0.134571,0.259366,0.021193,-0.164677
627,85886713860395,-0.081909,8.257584,5.629745,4.531802,8.602291,-2.313391,0.009689,0.01033,-0.000427,0.013809,0.00152,-0.002787,0.850955,0.436445,0.134645,0.259349,0.021102,-0.165022
628,85886718834760,-0.095078,8.234833,5.595032,4.508214,8.566877,-2.326066,-0.000961,-0.001389,0.011292,-0.001605,0.008816,0.007076,0.850911,0.436532,0.134675,0.259333,0.021009,-0.165365
629,85886723809126,-0.059769,8.180969,5.605804,4.507849,8.537561,-2.268521,-0.014816,-0.012054,0.018738,-0.019073,0.01419,0.012279,0.850882,0.436586,0.134654,0.259346,0.020913,-0.165708
630,85886728722456,-0.032242,8.20192,5.601013,4.543201,8.534202,-2.273913,-0.026535,-0.023758,0.026199,-0.035348,0.018386,0.019167,0.850861,0.436635,0.134587,0.25937,0.020816,-0.16605
631,85886733696821,0.010254,8.182755,5.585464,4.568912,8.497682,-2.25154,-0.038254,-0.033356,0.032593,-0.050438,0.022741,0.024024,0.850849,0.436671,0.134469,0.259408,0.020715,-0.166394
632,85886738640669,0.050964,8.134277,5.632141,4.576743,8.49827,-2.173218,-0.052094,-0.040802,0.032593,-0.066066,0.023632,0.022753,0.850864,0.436664,0.134307,0.259454,0.020612,-0.166737
633,85886743553999,0.068924,8.080414,5.700974,4.562589,8.521877,-2.08793,-0.060623,-0.046143,0.029388,-0.076107,0.021218,0.020626,0.850907,0.436614,0.134118,0.259498,0.020506,-0.167084
634,85886748497846,0.076706,8.073822,5.733307,4.566213,8.542217,-2.059987,-0.065948,-0.049332,0.02301,-0.082287,0.016229,0.016663,0.850965,0.436542,0.13392,0.259529,0.020399,-0.167433
635,85886753441694,0.070709,8.06604,5.831467,4.557308,8.620252,-1.998554,-0.065948,-0.052521,0.015549,-0.084053,0.008629,0.014489,0.851045,0.436439,0.133718,0.259544,0.02029,-0.167782
636,85886758385542,0.051559,8.012772,5.898499,4.511694,8.655544,-1.930197,-0.059555,-0.052521,0.007019,-0.078738,-0.000376,0.01244,0.85114,0.436315,0.133528,0.259539,0.020194,-0.168126
637,85886763329389,0.035995,7.995407,5.978699,4.488649,8.717967,-1.876615,-0.046768,-0.051468,-0.002563,-0.06753,-0.01181,0.011955,0.85124,0.436187,0.133357,0.259512,0.0201,-0.168472
638,85886768273237,0.036591,8.000809,6.028976,4.491477,8.761915,-1.848862,-0.027603,-0.042938,-0.011093,-0.046859,-0.020842,0.009925,0.851329,0.436079,0.133222,0.259472,0.020008,-0.168815
639,85886773217085,0.009659,8.013962,6.04454,4.47547,8.79048,-1.85952,-0.007355,-0.029099,-0.018539,-0.022327,-0.026769,0.005429,0.851399,0.435997,0.133147,0.25942,0.01992,-0.169155
640,85886778160932,-0.022659,8.016968,6.052933,4.449125,8.810042,-1.870488,0.015015,-0.013107,-0.022797,0.005165,-0.029748,0.002301,0.851444,0.435946,0.133135,0.259363,0.019837,-0.169492
641,85886783104780,-0.022659,8.075027,6.045746,4.480282,8.832981,-1.913951,0.037384,0.001801,-0.027069,0.032054,-0.033258,-0.000102,0.851456,0.435946,0.133177,0.259304,0.019762,-0.169822
642,85886788018110,-0.038223,8.091187,5.996658,4.474989,8.806532,-1.961672,0.059753,0.017776,-0.033463,0.059542,-0.037961,-0.004452,0.851434,0.435996,0.133283,0.259236,0.019692,-0.17015
643,85886792961958,-0.062164,8.121109,5.927826,4.47036,8.77329,-2.034855,0.075729,0.030563,-0.035583,0.079946,-0.038656,-0.007037,0.851381,0.436093,0.133445,0.259163,0.019629,-0.170475
644,85886797875288,-0.063354,8.184555,5.798538,4.504418,8.699096,-2.156384,0.085312,0.040146,-0.033463,0.093249,-0.035389,-0.007863,0.851274,0.436247,0.133668,0.259142,0.019573,-0.170797
645,85886803002241,-0.098679,8.181564,5.743469,4.471687,8.664393,-2.206245,0.090652,0.047607,-0.031326,0.10185,-0.031747,-0.009183,0.851182,0.436428,0.133866,0.259037,0.019521,-0.171118
646,85886807793501,-0.079529,8.258774,5.657288,4.529924,8.624979,-2.303928,0.091705,0.051865,-0.028137,0.105101,-0.027421,-0.009667,0.85105,0.436645,0.134103,0.258981,0.019475,-0.171437
647,85886812676313,-0.071136,8.281525,5.584259,4.548975,8.573157,-2.362297,0.083191,0.049744,-0.026001,0.096854,-0.023948,-0.010822,0.850913,0.436873,0.134334,0.258927,0.019431,-0.171759
648,85886817620161,-0.092697,8.285706,5.529785,4.532894,8.53705,-2.410743,0.069336,0.044418,-0.020676,0.082377,-0.017712,-0.010402,0.850781,0.437092,0.134553,0.258878,0.01939,-0.172084
649,85886822564008,-0.108246,8.273148,5.50705,4.512565,8.516744,-2.426134,0.052292,0.038025,-0.013214,0.06465,-0.00923,-0.009492,0.850664,0.437283,0.134745,0.25884,0.019351,-0.172412
