,time,acce_x,acce_y,acce_z,acce_glob_x,acce_glob_y,acce_glob_z,gyro_x,gyro_y,gyro_z,gyro_glob_x,gyro_glob_y,gyro_glob_z,ori_w,ori_x,ori_y,ori_z,pos_x,pos_y
0,1917659372621733,0.958359,10.02211,-0.295303,-9.989617,0.131085,-1.28014,0.150742,-0.052765,0.075211,0.060641,0.07478,-0.147968,0.52131,0.494351,-0.498916,-0.484702,0.001561,0.004077
1,1917659377565580,0.715958,9.972427,-0.138474,-9.941541,0.285188,-1.03222,0.136902,-0.04425,0.056046,0.050894,0.055706,-0.134715,0.521156,0.494404,-0.499223,-0.484497,0.001561,0.004075
2,1917659382509428,0.498077,9.979614,-0.036133,-9.951544,0.387118,-0.811787,0.130508,-0.037857,0.046448,0.043896,0.046214,-0.128687,0.521003,0.494472,-0.499493,-0.484314,0.00156,0.004072
3,1917659387453276,0.415482,10.003555,-0.02356,-9.977628,0.401496,-0.728166,0.127304,-0.038925,0.044327,0.044757,0.043925,-0.125514,0.520848,0.494539,-0.499754,-0.484144,0.00156,0.004069
4,1917659392397123,0.436432,9.910172,-0.08461,-9.886335,0.33827,-0.744981,0.120911,-0.043182,0.039001,0.048566,0.038278,-0.119086,0.520688,0.4946,-0.500008,-0.48399,0.001559,0.004064
5,1917659397340971,0.668671,10.026901,-0.162415,-9.998919,0.270081,-0.980242,0.104935,-0.029327,0.053909,0.034853,0.053539,-0.103424,0.520587,0.494634,-0.500253,-0.483811,0.001558,0.004059
6,1917659402284819,0.703979,9.865891,-0.183365,-9.837823,0.24468,-1.011062,0.092148,0.003693,0.045395,0.001132,0.046279,-0.091774,0.520533,0.494701,-0.500431,-0.483616,0.001557,0.004053
7,1917659407228666,0.543564,9.819199,-0.109146,-9.79296,0.316864,-0.849377,0.078308,0.014343,0.032608,-0.01047,0.033814,-0.07841,0.520491,0.494781,-0.500556,-0.48345,0.001556,0.004047
8,1917659412141996,0.589066,9.891022,0.006973,-9.858137,0.438051,-0.896948,0.06871,0.016479,0.037933,-0.012664,0.039128,-0.068849,0.520475,0.494839,-0.500671,-0.483289,0.001555,0.004042
9,1917659417085844,0.611801,9.867081,-0.036728,-9.835216,0.39521,-0.920508,0.062332,0.021805,0.035797,-0.01826,0.037159,-0.062673,0.520471,0.494899,-0.500771,-0.483129,0.001554,0.004037
10,1917659421999174,0.483719,9.826385,-0.101974,-9.801286,0.328733,-0.793016,0.057007,0.023926,0.032608,-0.020672,0.034012,-0.057458,0.520465,0.494964,-0.500855,-0.482981,0.001553,0.004032
11,1917659426943022,0.443008,9.853912,-0.16362,-9.832616,0.269511,-0.754696,0.049545,0.0186,0.033676,-0.015534,0.034785,-0.049834,0.520461,0.495016,-0.500939,-0.482845,0.001553,0.004027
12,1917659431886869,0.477722,9.849716,-0.189362,-9.828361,0.245447,-0.7899,0.041016,0.00795,0.035797,-0.00507,0.036373,-0.040966,0.520456,0.495041,-0.501031,-0.482729,0.001553,0.004021
13,1917659436830717,0.522018,9.907776,-0.157028,-9.883462,0.28227,-0.835868,0.033569,0.001556,0.035797,0.001084,0.036039,-0.033328,0.520455,0.495046,-0.501123,-0.48263,0.001552,0.004015
14,1917659441774565,0.608215,9.956863,-0.112747,-9.927738,0.330876,-0.923105,0.027176,-0.003769,0.032608,0.006063,0.032574,-0.0268,0.520455,0.495037,-0.501211,-0.482547,0.001552,0.004008
15,1917659446687895,0.605225,9.993378,-0.160034,-9.966358,0.286647,-0.921406,0.018646,-0.004837,0.027283,0.006627,0.027152,-0.018284,0.520456,0.495024,-0.501285,-0.482483,0.001551,0.004002
16,1917659451631742,0.562729,10.054428,-0.182175,-10.029645,0.268272,-0.880678,0.007996,-0.006958,0.024078,0.008267,0.023791,-0.007598,0.520462,0.495,-0.501345,-0.482439,0.00155,0.003987
17,1917659456575590,0.556137,10.073578,-0.196533,-10.049622,0.255992,-0.874311,-0.002655,-0.010162,0.023026,0.011084,0.022534,0.00314,0.520475,0.494962,-0.501394,-0.482413,0.00155,0.003987
18,1917659461519438,0.506454,10.052032,-0.199539,-10.029856,0.252888,-0.823261,-0.013306,-0.01442,0.020889,0.014906,0.020145,0.013904,0.520492,0.494908,-0.501433,-0.48241,0.001549,0.003979
19,1917659466463285,0.536392,10.049042,-0.149857,-10.023755,0.30351,-0.851867,-0.022888,-0.016556,0.015564,0.016502,0.014671,0.023509,0.520513,0.494844,-0.501456,-0.482429,0.001548,0.003969
20,1917659471407133,0.465759,10.023895,-0.016968,-9.994995,0.435553,-0.778636,-0.03035,-0.016556,0.014496,0.016222,0.013554,0.03096,0.520545,0.49477,-0.501462,-0.482465,0.001546,0.003958
21,1917659476350981,0.373581,10.012527,0.060242,-9.983107,0.512347,-0.684786,-0.032486,-0.01442,0.014496,0.014025,0.013631,0.033029,0.520581,0.494696,-0.501457,-0.482506,0.001543,0.003944
22,1917659481294828,0.359222,10.062805,0.127274,-10.030748,0.582362,-0.67089,-0.029282,-0.010162,0.017685,0.010019,0.017023,0.02972,0.520624,0.494625,-0.501453,-0.482536,0.001539,0.003929
23,1917659486208158,0.308929,10.080765,0.17276,-10.048192,0.629475,-0.620356,-0.026093,-0.008026,0.026215,0.008372,0.025656,0.026536,0.520676,0.494552,-0.501457,-0.482552,0.001535,0.003912
24,1917659491152006,0.365799,10.032288,0.245789,-9.994648,0.702013,-0.674809,-0.01651,-0.004837,0.029404,0.005636,0.029045,0.016887,0.520728,0.494486,-0.501471,-0.482549,0.001532,0.003897
25,1917659496095854,0.374771,10.017319,0.277512,-9.977912,0.734539,-0.682619,-0.004791,-0.008026,0.030472,0.00924,0.030044,0.005283,0.520764,0.494428,-0.501505,-0.482534,0.001529,0.003885
26,1917659501009184,0.319717,10.035278,0.241592,-9.999091,0.700753,-0.628051,0.003738,-0.008026,0.036865,0.009802,0.036485,-0.00319,0.520794,0.494377,-0.501555,-0.482501,0.001527,0.003874
27,1917659505983549,0.38974,9.970627,0.191925,-9.934486,0.650645,-0.696229,0.010132,-0.004837,0.042191,0.007068,0.041991,-0.009638,0.520828,0.49433,-0.50162,-0.482445,0.001526,0.003863
28,1917659510927397,0.465759,9.917953,0.255371,-9.876499,0.714243,-0.769632,0.018646,-0.010162,0.044327,0.012757,0.043934,-0.01797,0.520851,0.494281,-0.501704,-0.482382,0.001524,0.003852
29,1917659515840727,0.500473,9.954468,0.21167,-9.913805,0.674581,-0.805078,0.028244,-0.016556,0.044327,0.019448,0.043695,-0.027373,0.520854,0.494238,-0.50181,-0.482314,0.001522,0.003838
30,1917659520784574,0.501663,9.958664,0.121887,-9.92203,0.587092,-0.806183,0.037827,-0.020813,0.042191,0.023903,0.041414,-0.036846,0.520835,0.494206,-0.501933,-0.482238,0.001519,0.003823
31,1917659525728422,0.476532,9.952667,0.051254,-9.920061,0.518137,-0.780494,0.036758,-0.020813,0.044327,0.023975,0.043529,-0.035772,0.520817,0.494174,-0.502059,-0.48216,0.001515,0.003803
32,1917659530672270,0.475327,9.946091,0.008163,-9.915513,0.476712,-0.778597,0.036758,-0.018677,0.042191,0.021748,0.041484,-0.035864,0.520798,0.494149,-0.502181,-0.48208,0.00151,0.003774
33,1917659535616117,0.46994,9.948486,-0.04451,-9.920468,0.426334,-0.773237,0.031433,-0.010162,0.046448,0.01329,0.046095,-0.030779,0.520799,0.494123,-0.502292,-0.48199,0.001504,0.003738
34,1917659540559965,0.593842,9.933517,-0.025955,-9.900741,0.447235,-0.89631,0.022919,-0.004837,0.047516,0.007773,0.04736,-0.02243,0.520822,0.494087,-0.50239,-0.481899,0.001498,0.003688
35,1917659545473295,0.630951,9.932327,0.005768,-9.89688,0.481197,-0.932542,0.021851,-0.013351,0.042191,0.015998,0.041626,-0.021146,0.520832,0.494044,-0.502491,-0.481828,0.00149,0.003619
36,1917659550417143,0.60582,9.977219,-0.078629,-9.946443,0.40087,-0.908703,0.021851,-0.01442,0.039001,0.01692,0.038383,-0.021141,0.520833,0.494007,-0.502592,-0.481759,0.00148,0.003518
37,1917659555360990,0.557938,9.956268,-0.241425,-9.934733,0.238734,-0.86087,0.012253,-0.009094,0.034729,0.011112,0.034316,-0.011742,0.520841,0.493976,-0.502673,-0.481698,0.001467,0.003402
38,1917659560304838,0.42865,9.869476,-0.28154,-9.853928,0.195361,-0.729037,-0.000519,-0.004837,0.032608,0.006375,0.032335,0.00088,0.520862,0.493941,-0.502728,-0.481653,0.001453,0.003268
39,1917659565218168,0.247879,9.893417,-0.20192,-9.879468,0.276749,-0.548973,-0.01651,0.009018,0.039001,-0.007634,0.039305,0.016487,0.520924,0.493898,-0.502745,-0.481612,0.001436,0.003122
40,1917659570162016,0.495682,9.955063,-0.158829,-9.931244,0.326467,-0.798859,-0.028229,0.013275,0.047516,-0.011824,0.047954,0.028132,0.521025,0.493826,-0.50276,-0.481562,0.001417,0.002962
41,1917659575105863,0.664474,9.978409,0.003983,-9.941336,0.494667,-0.967064,-0.032486,-0.000565,0.04007,0.001517,0.03982,0.032762,0.521133,0.493709,-0.502821,-0.4815,0.001395,0.002787
42,1917659580049711,0.568115,10.014328,0.075195,-9.976564,0.569371,-0.871201,-0.028229,-0.001633,0.03154,0.002306,0.031266,0.028485,0.52122,0.493614,-0.502843,-0.48148,0.001369,0.002596
43,1917659584963041,0.475937,10.031677,0.108719,-9.995006,0.604581,-0.779191,-0.025024,-0.001633,0.028351,0.002252,0.028095,0.025264,0.521287,0.49354,-0.502839,-0.481488,0.001338,0.002386
44,1917659589937406,0.497482,10.079559,0.144638,-10.040321,0.644421,-0.801646,-0.018631,-0.003769,0.027283,0.004532,0.026956,0.018935,0.521353,0.493462,-0.502841,-0.481495,0.001299,0.002156
45,1917659594881254,0.540573,10.10112,0.121887,-10.061565,0.624566,-0.845284,-0.01651,-0.003769,0.021957,0.004339,0.021646,0.016779,0.521413,0.49339,-0.502852,-0.481492,0.001252,0.001903
46,1917659599825102,0.471741,10.151993,0.1147,-10.11476,0.620271,-0.778199,-0.015442,0.003693,0.018753,-0.003235,0.01882,0.015464,0.521461,0.493349,-0.502838,-0.481497,0.001195,0.001624
47,1917659604768949,0.510056,10.092728,0.155411,-10.052309,0.659401,-0.814679,-0.012238,0.006882,0.019821,-0.006266,0.020063,0.012175,0.521527,0.493298,-0.502824,-0.481492,0.00113,0.001322
48,1917659609682280,0.559723,10.014328,0.155411,-9.972419,0.657246,-0.861997,-0.00798,0.002625,0.016632,-0.002041,0.016692,0.008025,0.521588,0.49324,-0.502829,-0.48148,0.00106,0.001006
49,1917659614626127,0.529205,9.997559,-0.00441,-9.964488,0.497359,-0.832369,-0.00798,0.002625,0.010239,-0.002357,0.010307,0.007976,0.521603,0.493231,-0.502852,-0.481449,0.000982,0.00066
50,1917659619569975,0.314331,10.210648,-0.085205,-10.187871,0.424291,-0.625035,-0.013306,0.006882,0.000641,-0.007247,0.000901,0.013095,0.521555,0.493297,-0.502822,-0.481465,0.000904,0.000305
51,1917659624513822,0.367599,9.857498,-0.169006,-9.83789,0.322287,-0.667946,-0.020767,-0.004837,-0.000412,0.004171,-0.000777,0.020901,0.521498,0.493343,-0.502829,-0.481473,0.000824,-4.5e-05
52,1917659629457670,0.884735,9.70607,-0.333008,-9.678849,0.158385,-1.181616,-0.036743,0.004761,0.025146,-0.004628,0.025137,0.036766,0.521573,0.493271,-0.502977,-0.48131,0.000736,-0.000394
53,1917659634401518,0.817108,9.92514,-0.267166,-9.89624,0.237411,-1.120397,-0.04953,0.005829,0.001709,-0.007255,0.001712,0.049341,0.521634,0.493217,-0.50305,-0.481222,0.000639,-0.000737
54,1917659639345365,0.663284,9.875458,-0.24263,-9.850132,0.259331,-0.964966,-0.059113,0.001556,-0.012131,-0.003979,-0.012382,0.058947,0.521661,0.49319,-0.503063,-0.481208,0.000532,-0.001079
55,1917659644258696,0.477722,9.849121,-0.299484,-9.832434,0.199187,-0.778952,-0.072968,-0.001633,-0.017456,-0.001486,-0.017946,0.072852,0.521644,0.4932,-0.503032,-0.481249,0.000414,-0.001419
56,1917659649202543,0.482513,9.867081,-0.28154,-9.849325,0.217206,-0.78417,-0.090012,0.002625,-0.017456,-0.006259,-0.017846,0.089756,0.521658,0.493187,-0.502971,-0.48131,0.000288,-0.00176
57,1917659654146391,0.557343,9.903,-0.057083,-9.87167,0.443523,-0.85834,-0.100662,0.003693,-0.019592,-0.00776,-0.020028,0.100344,0.521746,0.493102,-0.502864,-0.481414,0.000153,-0.002102
58,1917659659090238,0.533386,9.958054,0.090759,-9.920017,0.5934,-0.834717,-0.102783,0.002625,-0.022781,-0.006917,-0.023334,0.102459,0.521856,0.492992,-0.502717,-0.481561,1.1e-05,-0.002445
59,1917659664034086,0.478928,10.020905,0.109314,-9.983565,0.613636,-0.782168,-0.099594,0.009018,-0.025986,-0.013362,-0.026244,0.099037,0.521957,0.492907,-0.502547,-0.481716,-0.000137,-0.002789
60,1917659668947416,0.394531,10.046646,0.127869,-10.011007,0.630988,-0.69914,-0.100662,0.020737,-0.027054,-0.025151,-0.026791,0.099722,0.522059,0.492851,-0.50234,-0.481879,-0.000295,-0.003129
61,1917659673891264,0.340668,10.135239,0.258957,-10.094724,0.763656,-0.647766,-0.10173,0.029251,-0.025986,-0.033639,-0.025381,0.100519,0.522189,0.492787,-0.502084,-0.48207,-0.000457,-0.003467
62,1917659678835112,0.348434,10.15918,0.382858,-10.112382,0.886698,-0.655921,-0.092133,0.029251,-0.022781,-0.033192,-0.022168,0.090939,0.522338,0.492704,-0.50182,-0.482267,-0.000621,-0.003803
63,1917659683778959,0.376572,10.177734,0.42775,-10.12783,0.931808,-0.685437,-0.077225,0.033524,-0.02066,-0.036899,-0.019736,0.075917,0.522456,0.492664,-0.501646,-0.482362,-0.000784,-0.004137
64,1917659688692289,0.375977,10.147202,0.361313,-10.100575,0.863111,-0.686375,-0.066574,0.04097,-0.018524,-0.043905,-0.017161,0.065051,0.522569,0.492646,-0.501481,-0.48243,-0.000943,-0.004471
65,1917659693636137,0.416077,10.064011,0.224243,-10.022821,0.721795,-0.727821,-0.055923,0.05162,-0.017456,-0.054161,-0.015484,0.054069,0.522681,0.492656,-0.501321,-0.482464,-0.001101,-0.004805
66,1917659698549467,0.415482,10.011337,0.254761,-9.968639,0.748985,-0.727841,-0.053787,0.058014,-0.016403,-0.060439,-0.014117,0.051726,0.5228,0.492674,-0.501157,-0.482488,-0.001254,-0.005133
67,1917659703493315,0.429245,9.989182,0.311035,-9.943203,0.803642,-0.742605,-0.047394,0.052689,-0.015335,-0.054877,-0.013258,0.0455,0.522909,0.49269,-0.501006,-0.482509,-0.001397,-0.005447
68,1917659708437162,0.384949,9.94429,0.223648,-9.903956,0.712943,-0.700392,-0.036743,0.05162,-0.015335,-0.053473,-0.013206,0.034873,0.523,0.492723,-0.500871,-0.482518,-0.001531,-0.005743
69,1917659713381010,0.333481,9.945496,0.071609,-9.914072,0.559948,-0.653258,-0.033554,0.0495,-0.011078,-0.051053,-0.009031,0.031794,0.523082,0.492759,-0.50075,-0.482517,-0.001656,-0.006019
70,1917659718324858,0.347244,9.895813,-0.0457,-9.869567,0.440128,-0.669112,-0.037811,0.046295,-0.006805,-0.047795,-0.004976,0.036195,0.523168,0.492784,-0.500638,-0.482515,-0.001778,-0.006285
71,1917659723268705,0.386749,9.898804,-0.040314,-9.870856,0.445969,-0.710478,-0.043137,0.039917,-0.003616,-0.041458,-0.002172,0.041758,0.523258,0.492788,-0.500533,-0.482522,-0.001896,-0.006539
72,1917659728212553,0.499878,9.939499,0.13147,-9.89928,0.620876,-0.824198,-0.045273,0.035645,-0.003616,-0.037273,-0.002415,0.044025,0.523353,0.492776,-0.500429,-0.482538,-0.002006,-0.006784
73,1917659733156401,0.588455,9.985596,0.263153,-9.935872,0.755668,-0.913839,-0.041,0.031387,-0.006805,-0.033039,-0.005766,0.039845,0.523441,0.492762,-0.500331,-0.48256,-0.002108,-0.007021
74,1917659738100248,0.584274,10.033478,0.305038,-9.981692,0.799511,-0.912071,-0.03035,0.031387,-0.011078,-0.032891,-0.009911,0.029137,0.523512,0.492765,-0.500239,-0.482576,-0.002196,-0.007247
75,1917659743013578,0.575287,10.061615,0.178757,-10.016061,0.674123,-0.907182,-0.022888,0.030319,-0.015335,-0.03178,-0.014127,0.021649,0.523562,0.492786,-0.500156,-0.482585,-0.002273,-0.007467
76,1917659747957426,0.557938,10.064606,0.051254,-10.025638,0.546024,-0.893615,-0.019699,0.038849,-0.017456,-0.040292,-0.015797,0.01814,0.523613,0.492829,-0.500066,-0.482579,-0.002337,-0.007677
77,1917659752901274,0.499283,10.04425,0.004578,-10.009439,0.496642,-0.837115,-0.020767,0.044174,-0.022781,-0.045901,-0.020877,0.018942,0.523662,0.492887,-0.499961,-0.482576,-0.002391,-0.007877
78,1917659757845121,0.504669,10.080765,0.058441,-10.042992,0.551156,-0.845247,-0.023956,0.047363,-0.024918,-0.049299,-0.022905,0.021977,0.523718,0.492945,-0.499844,-0.482577,-0.002437,-0.00807
79,1917659762788969,0.560333,10.065796,0.096146,-10.024167,0.58771,-0.902323,-0.023956,0.05162,-0.025986,-0.053602,-0.023776,0.021801,0.523781,0.493007,-0.499721,-0.482573,-0.002476,-0.008255
80,1917659767702299,0.510056,10.055618,0.212265,-10.010087,0.701239,-0.85274,-0.019699,0.055893,-0.029175,-0.057873,-0.02671,0.017336,0.523842,0.493081,-0.499589,-0.482568,-0.002512,-0.008417
81,1917659772646147,0.422058,10.038864,0.25177,-9.994463,0.737266,-0.7665,-0.014374,0.059082,-0.030243,-0.060919,-0.027566,0.01187,0.523898,0.493168,-0.499454,-0.482558,-0.002549,-0.00858
82,1917659777589994,0.347839,10.028091,0.142838,-9.991382,0.625451,-0.696512,-0.00798,0.06015,-0.028122,-0.061657,-0.025323,0.005455,0.523944,0.493269,-0.499328,-0.482535,-0.002588,-0.008747
83,1917659782533842,0.328094,9.973022,0.114105,-9.938376,0.592492,-0.677952,-0.005844,0.054825,-0.024918,-0.056111,-0.022357,0.003538,0.523984,0.493363,-0.499217,-0.482511,-0.002621,-0.008916
84,1917659787477690,0.326294,9.962845,0.245193,-9.922054,0.72183,-0.675917,-0.000519,0.042038,-0.018524,-0.042853,-0.016514,-0.001247,0.524013,0.493437,-0.499132,-0.482492,-0.002645,-0.009086
85,1917659792421537,0.313721,9.976013,0.317017,-9.932218,0.793347,-0.664417,0.005875,0.033524,-0.01001,-0.033721,-0.008333,-0.007214,0.524036,0.493496,-0.499073,-0.482467,-0.002664,-0.009261
86,1917659797334867,0.263443,9.949677,0.285889,-9.909161,0.759827,-0.615191,0.016525,0.029251,-0.004684,-0.028816,-0.003079,-0.017629,0.524045,0.49356,-0.499038,-0.482428,-0.002686,-0.009445
87,1917659802156645,0.293381,9.943695,0.182343,-9.906848,0.656501,-0.647772,0.019714,0.02713,0.004913,-0.026131,0.006446,-0.020602,0.524056,0.493614,-0.499026,-0.482372,-0.002712,-0.009641
88,1917659807131010,0.354431,9.90419,0.099152,-9.86898,0.57256,-0.7099,0.018646,0.026062,0.009171,-0.024902,0.010633,-0.019438,0.524072,0.493663,-0.499024,-0.482308,-0.002741,-0.009849
89,1917659812105375,0.390945,9.889832,0.110519,-9.85265,0.584299,-0.746883,0.016525,0.022873,0.015564,-0.021494,0.01684,-0.017115,0.524095,0.493697,-0.499032,-0.48224,-0.002772,-0.01006
90,1917659817232328,0.411285,9.893417,0.136856,-9.854095,0.611983,-0.767935,0.015457,0.0186,0.020889,-0.017014,0.021943,-0.015819,0.524123,0.493715,-0.499051,-0.48217,-0.002806,-0.010276
91,1917659822115141,0.35144,9.924545,0.176956,-9.885401,0.653601,-0.70925,0.017578,0.010086,0.021957,-0.008384,0.022631,-0.017617,0.524138,0.493726,-0.49908,-0.482113,-0.00284,-0.010486
92,1917659826997953,0.398117,10.002945,0.223038,-9.959678,0.705008,-0.758256,0.020782,0.002625,0.025146,-0.000664,0.0255,-0.020504,0.524146,0.493724,-0.499127,-0.482058,-0.002878,-0.010708
93,1917659831880766,0.383759,10.029892,0.251175,-9.985701,0.735394,-0.744354,0.02504,-0.004837,0.028351,0.007096,0.028395,-0.024445,0.524144,0.493716,-0.49919,-0.482003,-0.002918,-0.010924
94,1917659836794096,0.418472,10.021515,0.256561,-9.975726,0.742172,-0.778265,0.032501,-0.010162,0.03154,0.012842,0.031411,-0.031667,0.524131,0.493705,-0.499275,-0.48194,-0.002959,-0.011137
95,1917659841768461,0.465164,10.029892,0.234421,-9.983373,0.722479,-0.824951,0.037827,-0.01442,0.032608,0.017342,0.032329,-0.036827,0.524109,0.493694,-0.499376,-0.481872,-0.003001,-0.011348
96,1917659846712309,0.498077,10.078964,0.17337,-10.034009,0.665625,-0.859777,0.045288,-0.016556,0.030472,0.019648,0.03017,-0.044242,0.524071,0.493693,-0.499488,-0.481797,-0.003045,-0.011555
97,1917659851656156,0.617783,10.097519,0.076996,-10.05269,0.573018,-0.980998,0.047409,-0.010162,0.028351,0.013244,0.028372,-0.046629,0.524036,0.493705,-0.499598,-0.481708,-0.00309,-0.01176
98,1917659856600004,0.666275,10.099319,0.045273,-10.054157,0.543001,-1.030193,0.043152,0.002625,0.020889,-3e-05,0.021479,-0.042942,0.524014,0.493736,-0.49968,-0.481616,-0.003137,-0.011962
99,1917659861543852,0.592056,10.04126,0.084778,-9.99693,0.579454,-0.954184,0.037827,0.013275,0.014496,-0.01116,0.015545,-0.038093,0.524004,0.493781,-0.49973,-0.48153,-0.003193,-0.012193
100,1917659866487699,0.60762,10.005951,0.053055,-9.962484,0.546781,-0.970033,0.034622,0.021805,0.011307,-0.019941,0.012734,-0.035245,0.524003,0.493836,-0.499763,-0.481439,-0.003249,-0.012421
101,1917659871401030,0.669861,9.962845,0.010559,-9.918999,0.504488,-1.032493,0.027176,0.024994,0.004913,-0.023703,0.006419,-0.028006,0.52402,0.493879,-0.499832,-0.481305,-0.003304,-0.012644
102,1917659876344877,0.598038,9.916763,-0.094193,-9.880587,0.397563,-0.961585,0.017578,0.023926,0.000641,-0.023197,0.001995,-0.018432,0.524006,0.493952,-0.499891,-0.481184,-0.003359,-0.012863
103,1917659881288725,0.601624,9.925735,-0.124115,-9.890704,0.368683,-0.967264,0.005875,0.028198,-0.004684,-0.028154,-0.003236,-0.006963,0.524,0.494026,-0.499931,-0.481073,-0.003411,-0.013078
104,1917659886232572,0.601028,9.912567,-0.022354,-9.872493,0.470081,-0.966236,-0.004791,0.026062,-0.01001,-0.026679,-0.008767,0.003707,0.52402,0.494068,-0.499934,-0.481005,-0.003461,-0.013288
105,1917659891115385,0.565109,9.913773,0.035095,-9.872126,0.527334,-0.930805,-0.009048,0.022873,-0.01001,-0.023656,-0.008966,0.008076,0.524046,0.494096,-0.499916,-0.480966,-0.003508,-0.013493
106,1917659896028715,0.548355,9.940109,0.009964,-9.90017,0.503304,-0.916484,-0.012238,0.023926,-0.011078,-0.02488,-0.010013,0.01121,0.524067,0.494132,-0.499893,-0.480931,-0.003553,-0.013695
107,1917659901003080,0.492691,9.904785,-0.057083,-9.870184,0.433556,-0.861408,-0.018631,0.021805,-0.011078,-0.023005,-0.010181,0.017675,0.524068,0.494183,-0.499867,-0.480903,-0.003594,-0.013893
108,1917659905977446,0.440018,9.873672,-0.095383,-9.842952,0.392328,-0.809029,-0.026093,0.019669,-0.011078,-0.021156,-0.010361,0.025209,0.524059,0.494241,-0.499832,-0.480891,-0.003633,-0.014087
109,1917659910890776,0.440018,9.856308,-0.072632,-9.824481,0.413417,-0.809067,-0.037811,0.020737,-0.01001,-0.022617,-0.009362,0.036888,0.524071,0.494278,-0.49978,-0.480895,-0.003669,-0.014279
110,1917659915804106,0.451996,9.840149,-0.015182,-9.805085,0.46965,-0.820307,-0.046326,0.013275,-0.007874,-0.01539,-0.007684,0.045699,0.524101,0.494277,-0.499721,-0.480924,-0.003701,-0.014475
111,1917659920747953,0.429245,9.861694,0.021332,-9.825683,0.506361,-0.798226,-0.051651,0.00795,-0.006805,-0.010228,-0.00694,0.051231,0.524135,0.494259,-0.499651,-0.480977,-0.00373,-0.01466
112,1917659925691801,0.423264,9.892822,0.050659,-9.855572,0.536487,-0.793377,-0.054855,0.009018,-0.006805,-0.011417,-0.006933,0.05439,0.524179,0.494234,-0.499569,-0.48104,-0.003754,-0.014837
113,1917659930635649,0.423859,9.88324,0.100342,-9.843623,0.585084,-0.793138,-0.059113,0.005829,-0.006805,-0.008397,-0.00715,0.058762,0.524235,0.49419,-0.499477,-0.481121,-0.003775,-0.015004
114,1917659935579496,0.447205,9.936508,0.118896,-9.895025,0.606062,-0.818274,-0.061249,0.004761,-0.007874,-0.007465,-0.008311,0.060921,0.524298,0.494134,-0.499384,-0.481206,-0.003794,-0.01517
115,1917659940523344,0.490891,9.934723,0.098541,-9.892515,0.586166,-0.862339,-0.06337,0.00795,-0.006805,-0.01068,-0.00713,0.062931,0.524372,0.494074,-0.499299,-0.481273,-0.003811,-0.015336
116,1917659945467192,0.496277,9.933517,0.097946,-9.891133,0.585537,-0.867943,-0.064438,0.009018,-0.008942,-0.011892,-0.009243,0.063927,0.524448,0.494016,-0.499212,-0.481342,-0.003825,-0.015504
117,1917659950411039,0.471741,9.949677,0.088364,-9.908639,0.576172,-0.844581,-0.068695,0.012207,-0.01001,-0.015292,-0.010226,0.068043,0.524523,0.493966,-0.499111,-0.481416,-0.003838,-0.015672
118,1917659955324369,0.497482,9.974823,0.061432,-9.934011,0.550608,-0.872146,-0.07402,0.014343,-0.012131,-0.017734,-0.012327,0.073249,0.524603,0.493916,-0.49901,-0.481485,-0.00385,-0.015841
119,1917659960268217,0.557343,10.020309,0.129669,-9.973784,0.621971,-0.933134,-0.075089,0.013275,-0.014267,-0.016816,-0.014552,0.074321,0.524706,0.493839,-0.498905,-0.48156,-0.003861,-0.016009
120,1917659965212065,0.536392,10.017319,0.245193,-9.966041,0.737074,-0.910649,-0.07402,0.011154,-0.015335,-0.014713,-0.015741,0.073309,0.524824,0.493742,-0.498776,-0.481665,-0.003871,-0.016179
121,1917659970155912,0.476532,10.008347,0.241592,-9.959584,0.731606,-0.850925,-0.068695,0.013275,-0.019592,-0.016832,-0.01985,0.067836,0.524919,0.493675,-0.498634,-0.481778,-0.003881,-0.016373
122,1917659975099760,0.48671,10.031677,0.155411,-9.986555,0.646302,-0.864097,-0.066574,0.020737,-0.017456,-0.024101,-0.017351,0.065459,0.525006,0.493633,-0.498509,-0.481855,-0.003891,-0.016567
123,1917659980013090,0.466949,9.991577,0.167984,-9.946622,0.656064,-0.843848,-0.070831,0.029251,-0.016403,-0.032722,-0.015974,0.069396,0.525108,0.493597,-0.498363,-0.481931,-0.003901,-0.016761
124,1917659984956938,0.38974,9.937714,0.306839,-9.889249,0.789917,-0.763429,-0.068695,0.02713,-0.016403,-0.030529,-0.016082,0.067331,0.525219,0.493547,-0.498179,-0.482051,-0.003912,-0.016954
125,1917659989748197,0.374771,9.929337,0.353531,-9.879289,0.834747,-0.748288,-0.06337,0.026062,-0.015335,-0.029211,-0.015022,0.062058,0.525328,0.493496,-0.497996,-0.482174,-0.003923,-0.017148
126,1917659994600492,0.386154,9.942505,0.307434,-9.894181,0.788587,-0.761811,-0.055923,0.023926,-0.011078,-0.026592,-0.010785,0.054764,0.525423,0.493454,-0.497842,-0.482273,-0.003934,-0.017342
127,1917659999727446,0.379562,9.956863,0.245193,-9.91169,0.726079,-0.758041,-0.048462,0.02713,-0.007874,-0.029353,-0.007334,0.047236,0.525506,0.493437,-0.497702,-0.482345,-0.003947,-0.017537
128,1917660004701811,0.395721,9.935318,0.17157,-9.892974,0.651087,-0.775683,-0.047394,0.023926,-0.005737,-0.026017,-0.005349,0.046325,0.525571,0.493427,-0.497593,-0.482396,-0.00396,-0.017731
129,1917660009523588,0.456772,9.907776,0.13266,-9.864849,0.611764,-0.837057,-0.04953,0.0186,-0.004684,-0.02074,-0.004595,0.048681,0.525635,0.493403,-0.497514,-0.482432,-0.003974,-0.017925
130,1917660014528471,0.46994,9.96225,0.187729,-9.916082,0.669555,-0.851833,-0.04953,0.013275,-0.004684,-0.015428,-0.004862,0.048885,0.525709,0.493359,-0.49743,-0.482484,-0.003988,-0.018121
131,1917660019533354,0.436432,9.987396,0.22963,-9.940528,0.711786,-0.81882,-0.048462,0.009018,-0.004684,-0.011139,-0.005061,0.047981,0.525777,0.493309,-0.497338,-0.482555,-0.004002,-0.018322
132,1917660024477201,0.450195,10.005341,0.194916,-9.959542,0.678028,-0.833998,-0.043137,0.004761,-0.003616,-0.00663,-0.004117,0.042844,0.525829,0.493266,-0.497271,-0.482613,-0.004016,-0.018514
133,1917660029421049,0.539383,10.033478,0.083588,-9.989243,0.570286,-0.926369,-0.045273,0.003693,-0.002548,-0.0056,-0.003143,0.045039,0.525876,0.493223,-0.497245,-0.48263,-0.00403,-0.018708
134,1917660034364897,0.583069,10.06041,0.014755,-10.017542,0.504429,-0.972817,-0.053787,0.011154,-0.003616,-0.013437,-0.004006,0.053235,0.525936,0.493186,-0.497222,-0.482627,-0.004043,-0.018903
135,1917660039308744,0.559128,10.040665,0.174561,-9.991179,0.663288,-0.945578,-0.061249,0.014343,-0.007874,-0.017121,-0.008251,0.060481,0.526031,0.493119,-0.497143,-0.482672,-0.004057,-0.019095
136,1917660044252592,0.499283,10.066406,0.27272,-10.014616,0.76158,-0.885321,-0.062317,0.014343,-0.008942,-0.017217,-0.00936,0.061523,0.526135,0.493045,-0.49703,-0.482753,-0.00407,-0.019284
137,1917660049196440,0.401108,10.086151,0.295471,-10.03717,0.782684,-0.788281,-0.059113,0.019669,-0.01001,-0.022461,-0.010139,0.058087,0.526225,0.492999,-0.496887,-0.482849,-0.004083,-0.01947
138,1917660054140287,0.426849,10.077774,0.30864,-10.027116,0.795468,-0.814292,-0.052719,0.022873,-0.006805,-0.025259,-0.006688,0.051634,0.526321,0.492954,-0.496755,-0.482925,-0.004108,-0.019832
139,1917660059084135,0.502869,10.049637,0.322403,-9.995261,0.809584,-0.889567,-0.050598,0.019669,-0.005737,-0.021931,-0.005752,0.049658,0.526431,0.492887,-0.496645,-0.482987,-0.004108,-0.019832
140,1917660064027983,0.390335,10.020905,0.236206,-9.975128,0.71938,-0.778493,-0.048462,0.017532,-0.003616,-0.019617,-0.003709,0.047649,0.526497,0.49286,-0.496539,-0.483052,-0.004119,-0.020008
141,1917660068941313,0.359818,10.020905,0.191925,-9.978399,0.673763,-0.749881,-0.048462,0.021805,-0.00148,-0.023787,-0.001386,0.047523,0.526554,0.492853,-0.496433,-0.483105,-0.004127,-0.020147
142,1917660073885160,0.398117,10.026291,0.257767,-9.979136,0.740111,-0.787843,-0.046326,0.021805,-0.000412,-0.023656,-0.000291,0.04541,0.526632,0.492825,-0.496326,-0.48316,-0.004134,-0.020286
143,1917660078829008,0.434036,10.005951,0.341553,-9.953406,0.823508,-0.821912,-0.042068,0.020737,-0.000412,-0.022422,-0.000271,0.041196,0.526727,0.492776,-0.496216,-0.483218,-0.004142,-0.020424
144,1917660083772856,0.449005,9.967636,0.27272,-9.917691,0.753303,-0.837806,-0.043137,0.022873,-0.000412,-0.024602,-0.000203,0.042176,0.526816,0.49274,-0.49612,-0.483258,-0.00415,-0.020562
145,1917660088686186,0.458572,10.010132,0.31282,-9.957721,0.79578,-0.849381,-0.044205,0.029251,0.000641,-0.030969,0.001117,0.043009,0.526923,0.492699,-0.49601,-0.483295,-0.004158,-0.0207
146,1917660093477446,0.423264,9.989182,0.391235,-9.934524,0.872334,-0.812502,-0.039932,0.026062,0.000641,-0.027617,0.00104,0.038864,0.527028,0.492651,-0.495889,-0.483353,-0.004164,-0.020839
147,1917660098512846,0.420868,9.993378,0.375671,-9.939471,0.856824,-0.811608,-0.033554,0.023926,0.000641,-0.025228,0.001062,0.032576,0.527122,0.492613,-0.495778,-0.483404,-0.004171,-0.020993
148,1917660103548246,0.422058,10.023895,0.309235,-9.972903,0.791633,-0.816556,-0.029282,0.022873,-0.002548,-0.024153,-0.00209,0.028273,0.527191,0.492598,-0.495684,-0.48344,-0.004177,-0.021149
149,1917660108461576,0.441223,10.035873,0.256561,-9.98645,0.739956,-0.838167,-0.025024,0.017532,0.000641,-0.018501,0.00093,0.024307,0.527243,0.492586,-0.495623,-0.483458,-0.004181,-0.021309
150,1917660113405424,0.445999,10.04245,0.296661,-9.990913,0.78048,-0.842741,-0.023956,0.012207,0.001709,-0.013094,0.001764,0.023479,0.527298,0.492558,-0.495564,-0.483487,-0.004184,-0.02147
151,1917660118349272,0.42865,10.049637,0.340363,-9.996763,0.824023,-0.824831,-0.020767,0.005829,0.001709,-0.006597,0.001528,0.02055,0.527346,0.492522,-0.495505,-0.483531,-0.004184,-0.021628
152,1917660123262602,0.415482,10.129852,0.317017,-10.078476,0.80398,-0.815473,-0.014374,0.001556,0.002777,-0.002019,0.00253,0.014362,0.527374,0.492498,-0.495462,-0.48357,-0.004183,-0.021785
153,1917660128206449,0.399918,10.102905,0.178146,-10.05866,0.663415,-0.802219,-0.014374,0.001556,0.005981,-0.001871,0.00573,0.014439,0.527373,0.492502,-0.495449,-0.48358,-0.00418,-0.021937
154,1917660133150297,0.382553,10.035873,0.136856,-9.994363,0.618419,-0.783702,-0.018631,0.011154,0.009171,-0.01148,0.009274,0.01838,0.527383,0.492519,-0.495428,-0.483574,-0.004175,-0.022087
155,1917660138094145,0.414886,9.977814,0.259552,-9.929336,0.739142,-0.811282,-0.025024,0.013275,0.010239,-0.013814,0.010296,0.024707,0.527436,0.492496,-0.495379,-0.483589,-0.004168,-0.022233
156,1917660143007475,0.405899,9.919159,0.327789,-9.867963,0.804521,-0.798767,-0.022888,0.012207,0.010239,-0.012661,0.010289,0.022617,0.527499,0.492461,-0.495319,-0.483618,-0.00416,-0.022374
157,1917660147951322,0.426849,9.929337,0.23082,-9.881668,0.708914,-0.823116,-0.01651,0.014343,0.010239,-0.014529,0.010532,0.01616,0.52754,0.492454,-0.495289,-0.483612,-0.004152,-0.022511
158,1917660152895170,0.444809,9.881439,-0.007401,-9.844023,0.469525,-0.84587,-0.022888,0.019669,0.011307,-0.020062,0.01171,0.022338,0.52755,0.49249,-0.495298,-0.483554,-0.004143,-0.022648
159,1917660157839018,0.522018,9.847336,-0.073242,-9.809663,0.404905,-0.924384,-0.037811,0.024994,0.011307,-0.026002,0.011634,0.037024,0.527587,0.492511,-0.495313,-0.483477,-0.004135,-0.022783
160,1917660162782865,0.551941,9.823395,0.0327,-9.779431,0.511546,-0.951681,-0.053787,0.021805,0.009171,-0.023591,0.008992,0.053059,0.527665,0.49248,-0.495294,-0.483442,-0.004126,-0.022941
161,1917660167696196,0.555542,9.84613,0.11171,-9.798138,0.592762,-0.955282,-0.06337,0.023926,0.003845,-0.026364,0.00355,0.062412,0.527767,0.49243,-0.49524,-0.483438,-0.004118,-0.023097
162,1917660172640043,0.50885,9.891617,0.061432,-9.847682,0.544237,-0.913059,-0.071899,0.030319,-0.000412,-0.033312,-0.000602,0.070561,0.527862,0.492402,-0.495162,-0.483442,-0.004112,-0.023246
163,1917660177583891,0.446609,9.893417,0.15181,-9.84777,0.63331,-0.850048,-0.078293,0.031387,0.000641,-0.03461,0.000331,0.076924,0.527973,0.492361,-0.495045,-0.483483,-0.004106,-0.023388
164,1917660182527738,0.491501,9.973618,0.354126,-9.916327,0.840769,-0.89413,-0.079361,0.028198,-0.00148,-0.031583,-0.002,0.078064,0.528128,0.492266,-0.494896,-0.483562,-0.004101,-0.023531
165,1917660187471586,0.504059,10.039459,0.422958,-9.978192,0.913371,-0.908495,-0.071899,0.026062,-0.005737,-0.029342,-0.006212,0.070584,0.528282,0.492168,-0.494743,-0.483652,-0.004097,-0.023677
166,1917660192384916,0.48671,10.096329,0.348145,-10.039047,0.841161,-0.896558,-0.062317,0.028198,-0.005737,-0.031074,-0.005904,0.060918,0.528405,0.492106,-0.494611,-0.483714,-0.004093,-0.023826
167,1917660197328764,0.492096,10.06041,0.39183,-10.000807,0.883612,-0.900294,-0.060181,0.02713,-0.002548,-0.029776,-0.002741,0.058908,0.528538,0.492032,-0.49448,-0.483778,-0.004091,-0.023975
168,1917660202272612,0.432236,10.201675,0.539078,-10.137416,1.035923,-0.843364,-0.054855,0.02713,-0.000412,-0.029455,-0.000504,0.053642,0.528684,0.491946,-0.494315,-0.483875,-0.004089,-0.024127
169,1917660207216459,0.400513,10.146011,0.585175,-10.081035,1.078283,-0.808874,-0.039932,0.023926,0.000641,-0.025571,0.000753,0.038897,0.528812,0.491871,-0.494158,-0.483971,-0.004089,-0.024278
170,1917660212129789,0.434631,10.13942,0.540878,-10.075006,1.034567,-0.844564,-0.028229,0.019669,-0.000412,-0.02087,-0.000211,0.027356,0.528916,0.491811,-0.494038,-0.484042,-0.004089,-0.024431
171,1917660217073637,0.495087,10.168747,0.507355,-10.103123,1.004443,-0.90778,-0.021835,0.0186,-0.00148,-0.019578,-0.001167,0.020982,0.529014,0.491754,-0.493945,-0.484088,-0.004089,-0.02459
172,1917660221986967,0.503464,10.126846,0.532501,-10.059679,1.028151,-0.914269,-0.011185,0.016479,-0.002548,-0.01705,-0.002056,0.010403,0.529102,0.491703,-0.493863,-0.484127,-0.00409,-0.024741
173,1917660226930815,0.48671,10.083755,0.501373,-10.018846,0.994685,-0.896469,0.000534,0.009018,-0.003616,-0.009145,-0.003166,-0.001018,0.529145,0.491658,-0.493818,-0.484171,-0.004092,-0.024891
174,1917660231874662,0.501068,10.065796,0.299057,-10.00965,0.79232,-0.916447,0.005875,0.011154,-0.002548,-0.010994,-0.001855,-0.006411,0.529156,0.491674,-0.493813,-0.484148,-0.004094,-0.025042
175,1917660236787992,0.539383,10.010727,0.184738,-9.958215,0.67693,-0.956823,-0.003723,0.022873,-0.003616,-0.023157,-0.002618,0.002647,0.529177,0.491708,-0.493811,-0.484093,-0.004095,-0.025191
176,1917660241731840,0.505859,9.950882,0.223038,-9.898036,0.711481,-0.921129,-0.009048,0.029251,-0.005737,-0.029854,-0.004573,0.00763,0.529212,0.491743,-0.493777,-0.484054,-0.004097,-0.025337
177,1917660246675688,0.494492,9.910782,0.211075,-9.858928,0.697214,-0.909975,-0.014374,0.032455,-0.007874,-0.033386,-0.006697,0.012746,0.52925,0.491782,-0.49373,-0.48402,-0.004098,-0.025481
178,1917660251619535,0.462173,9.863495,0.19072,-9.813953,0.673475,-0.878171,-0.019699,0.039917,-0.006805,-0.04102,-0.005417,0.017769,0.529295,0.491832,-0.493666,-0.483985,-0.0041,-0.025622
179,1917660256563383,0.46756,9.840149,0.109924,-9.794012,0.591576,-0.886936,-0.026093,0.043106,-0.006805,-0.04449,-0.005436,0.024008,0.529337,0.491893,-0.493609,-0.483936,-0.004102,-0.025761
180,1917660261507231,0.487305,9.88623,0.106323,-9.839074,0.59057,-0.911093,-0.036743,0.0495,-0.007874,-0.0514,-0.006485,0.034326,0.5294,0.491947,-0.493533,-0.483889,-0.004105,-0.025899
181,1917660266420561,0.505264,9.922745,0.172165,-9.871446,0.658432,-0.931051,-0.044205,0.050568,-0.012131,-0.053006,-0.010891,0.041595,0.529485,0.49198,-0.493434,-0.483864,-0.004108,-0.026066
182,1917660271364408,0.433441,9.905991,0.261353,-9.853656,0.744121,-0.858208,-0.050598,0.048431,-0.012131,-0.051171,-0.01118,0.048057,0.529579,0.491999,-0.493295,-0.483883,-0.004111,-0.026233
183,1917660276308256,0.406494,9.935913,0.357712,-9.88019,0.840305,-0.831408,-0.048462,0.037781,-0.011078,-0.040406,-0.010595,0.046409,0.529674,0.491991,-0.49315,-0.483935,-0.004115,-0.026397
184,1917660281252104,0.432236,10.005341,0.387054,-9.946896,0.873095,-0.860529,-0.042068,0.029251,-0.01001,-0.03156,-0.009772,0.040423,0.529762,0.491971,-0.493024,-0.483988,-0.004119,-0.026563
185,1917660286165434,0.487305,10.069992,0.381653,-10.009097,0.872279,-0.919312,-0.041,0.020737,-0.008942,-0.02297,-0.009091,0.039758,0.529847,0.491931,-0.492926,-0.484036,-0.004125,-0.026727
186,1917660291109281,0.46756,10.069397,0.464264,-10.005549,0.953923,-0.897666,-0.039932,0.017532,-0.012131,-0.019873,-0.012411,0.038731,0.529936,0.491879,-0.492808,-0.48411,-0.004131,-0.026891
187,1917660296053129,0.418472,10.090942,0.54985,-10.025397,1.038261,-0.847323,-0.033554,0.013275,-0.013199,-0.015385,-0.013513,0.032512,0.530018,0.491825,-0.492675,-0.484211,-0.004138,-0.027055
188,1917660300996977,0.386154,10.117874,0.525314,-10.054958,1.013292,-0.817074,-0.021835,0.005829,-0.007874,-0.007175,-0.008219,0.021301,0.530072,0.491784,-0.492571,-0.4843,-0.004146,-0.027218
189,1917660305910307,0.350235,10.120865,0.415771,-10.064698,0.901944,-0.78481,-0.01651,0.003693,-0.004684,-0.004654,-0.004984,0.016176,0.530089,0.491775,-0.492496,-0.484367,-0.004155,-0.027379
190,1917660310884672,0.364609,10.089737,0.365494,-10.035314,0.849864,-0.799781,-0.017563,0.010086,-0.002548,-0.010984,-0.002584,0.01701,0.530111,0.491777,-0.492428,-0.48441,-0.004165,-0.027552
191,1917660315828520,0.363998,10.073578,0.522919,-10.012068,1.005614,-0.793811,-0.018631,0.010086,-0.00148,-0.010985,-0.001554,0.018109,0.530168,0.491742,-0.492328,-0.484484,-0.004174,-0.027715
192,1917660320741850,0.305939,10.069992,0.599533,-10.007773,1.079271,-0.733058,-0.009048,0.004761,0.002777,-0.005039,0.002726,0.008912,0.530211,0.491699,-0.492229,-0.484581,-0.004185,-0.027883
193,1917660325685697,0.334076,10.04126,0.471436,-9.983703,0.950231,-0.763883,-0.000519,0.004761,0.005981,-0.004504,0.006179,0.000499,0.530226,0.491684,-0.492179,-0.484631,-0.004195,-0.028049
194,1917660330629545,0.33168,9.996964,0.446899,-9.940779,0.922978,-0.760286,0.005875,0.002625,0.007034,-0.002032,0.007322,-0.005757,0.53023,0.491681,-0.492142,-0.484667,-0.004204,-0.028216
195,1917660335573393,0.352631,9.967636,0.478622,-9.909144,0.953494,-0.778951,0.012253,0.001556,0.007034,-0.000673,0.007464,-0.012077,0.530239,0.491677,-0.492109,-0.484694,-0.004214,-0.028383
196,1917660340517240,0.362808,10.014328,0.491196,-9.954741,0.9683,-0.790739,0.018646,-0.000565,0.010239,0.001881,0.010759,-0.018263,0.530245,0.491671,-0.492091,-0.484713,-0.004222,-0.02855
197,1917660345461088,0.414276,10.04425,0.366699,-9.987874,0.847139,-0.847375,0.023972,-0.003769,0.01236,0.005418,0.012886,-0.023372,0.530228,0.491682,-0.492122,-0.48469,-0.004231,-0.028716
198,1917660350374418,0.452591,10.017319,0.227829,-9.965487,0.708829,-0.888778,0.021851,-0.004837,0.01236,0.006387,0.012768,-0.021209,0.53019,0.49171,-0.492188,-0.484634,-0.004238,-0.028882
199,1917660355318266,0.511246,10.015518,0.159592,-9.964049,0.642964,-0.94962,0.015457,0.001556,0.007034,-0.000526,0.007554,-0.01528,0.530159,0.491747,-0.492258,-0.48456,-0.004245,-0.029048
200,1917660360262113,0.571106,9.986786,0.138641,-9.933467,0.623451,-1.009378,0.004807,0.011154,0.003845,-0.010736,0.004504,-0.005174,0.530157,0.491776,-0.492315,-0.484475,-0.004251,-0.029215
201,1917660365205961,0.558533,9.949677,0.207489,-9.893742,0.690826,-0.993805,-0.003723,0.016479,-0.00148,-0.016683,-0.000813,0.002938,0.530178,0.491793,-0.492332,-0.484417,-0.004247,-0.029402
202,1917660370119291,0.540573,9.962845,0.28949,-9.903859,0.773187,-0.974699,-0.009048,0.017532,-0.006805,-0.018222,-0.006237,0.008039,0.530214,0.491798,-0.492313,-0.484392,-0.004243,-0.02959
203,1917660375063139,0.484909,9.957458,0.282303,-9.901312,0.763931,-0.91998,-0.009048,0.0186,-0.008942,-0.019385,-0.008321,0.007922,0.530236,0.49182,-0.49228,-0.48438,-0.004237,-0.029778
204,1917660380006987,0.504669,9.955063,0.259552,-9.898959,0.741585,-0.941239,-0.011185,0.019669,-0.011078,-0.020649,-0.010467,0.009938,0.530258,0.491843,-0.49225,-0.484362,-0.004231,-0.029966
205,1917660384950834,0.452591,9.946091,0.247589,-9.892928,0.727153,-0.8901,-0.017563,0.0186,-0.011078,-0.019877,-0.010706,0.016352,0.530275,0.491871,-0.492205,-0.484362,-0.004225,-0.030154
206,1917660389864164,0.334671,9.978409,0.266739,-9.929787,0.742891,-0.774039,-0.019699,0.017532,-0.01001,-0.018862,-0.009757,0.018565,0.530274,0.491914,-0.492131,-0.484393,-0.004218,-0.030342
207,1917660394685942,0.374176,10.031677,0.277512,-9.980638,0.756418,-0.816289,-0.023956,0.016479,-0.005737,-0.017816,-0.005669,0.022996,0.530291,0.491936,-0.492067,-0.484418,-0.004211,-0.030528
208,1917660399690824,0.384949,10.019119,0.284103,-9.967337,0.762053,-0.826648,-0.026093,0.009018,-0.003616,-0.010375,-0.003966,0.025532,0.530309,0.491939,-0.492012,-0.484452,-0.004203,-0.030715
209,1917660404512602,0.35083,9.989792,0.306244,-9.938686,0.781027,-0.790723,-0.026093,0.004761,-0.000412,-0.005983,-0.000969,0.025825,0.530322,0.491936,-0.491956,-0.484496,-0.004194,-0.030907
210,1917660409548002,0.426849,9.973618,0.393036,-9.915115,0.869105,-0.863101,-0.027161,0.002625,-0.00148,-0.003949,-0.002172,0.026953,0.530368,0.491894,-0.491898,-0.484548,-0.004186,-0.031094
211,1917660414552885,0.497482,10.027496,0.455887,-9.962725,0.936829,-0.934018,-0.023956,0.003693,-0.004684,-0.005011,-0.00523,0.023601,0.530432,0.491835,-0.49184,-0.484596,-0.004177,-0.031283
212,1917660419527250,0.460373,10.028091,0.409195,-9.967147,0.888889,-0.898745,-0.020767,0.00795,-0.008942,-0.009303,-0.009191,0.020085,0.530475,0.491808,-0.491778,-0.484639,-0.004169,-0.031466
213,1917660424501615,0.4496,10.010727,0.383453,-9.951481,0.861735,-0.888394,-0.020767,0.009018,-0.008942,-0.010369,-0.009145,0.020035,0.530513,0.491791,-0.491718,-0.484676,-0.004161,-0.03165
214,1917660429414946,0.459167,10.015518,0.400223,-9.955073,0.878705,-0.897796,-0.020767,0.006882,-0.01001,-0.008286,-0.010314,0.020095,0.53055,0.491767,-0.49166,-0.484719,-0.004153,-0.031834
215,1917660434358793,0.478333,10.040665,0.370285,-9.980627,0.85027,-0.919235,-0.020767,0.005829,-0.013199,-0.007379,-0.01355,0.020035,0.53058,0.491749,-0.491609,-0.484756,-0.004146,-0.032017
216,1917660439302641,0.462769,10.008942,0.297867,-9.95295,0.775604,-0.905023,-0.021835,0.009018,-0.012131,-0.010563,-0.012371,0.020991,0.530599,0.49175,-0.491566,-0.484778,-0.004139,-0.032202
217,1917660444246488,0.420273,9.993378,0.337967,-9.937655,0.812707,-0.860906,-0.023956,0.009018,-0.015335,-0.010805,-0.01564,0.023001,0.530616,0.491753,-0.4915,-0.484824,-0.004133,-0.032387
218,1917660449190336,0.395721,9.995773,0.4086,-9.938098,0.881511,-0.83437,-0.025024,0.006882,-0.016403,-0.008771,-0.016843,0.024125,0.530641,0.491743,-0.491414,-0.484893,-0.004127,-0.032572
219,1917660454103666,0.40889,9.987991,0.459473,-9.927509,0.931582,-0.845568,-0.022888,0.005829,-0.013199,-0.007476,-0.013632,0.022144,0.530678,0.491717,-0.49133,-0.484964,-0.00412,-0.032758
220,1917660459047514,0.367599,9.939499,0.492386,-9.879671,0.959837,-0.801215,-0.017563,0.006882,-0.013199,-0.008277,-0.01342,0.016776,0.53071,0.4917,-0.491236,-0.485041,-0.004114,-0.032944
221,1917660463991362,0.408295,9.973618,0.473831,-9.912697,0.943534,-0.844113,-0.013306,0.004761,-0.01001,-0.005819,-0.010201,0.012728,0.530742,0.491678,-0.491166,-0.4851,-0.004119,-0.03313
222,1917660468904692,0.474731,10.020905,0.449295,-9.957866,0.923224,-0.913339,-0.010117,0.000488,-0.01001,-0.001405,-0.010296,0.009737,0.530771,0.491648,-0.491125,-0.485139,-0.004125,-0.033316
223,1917660473848539,0.463364,10.011932,0.438522,-9.949972,0.911361,-0.901821,-0.006912,-0.000565,-0.012131,-0.000297,-0.01236,0.006511,0.530788,0.491628,-0.491088,-0.485179,-0.004129,-0.033504
224,1917660478792387,0.423859,10.016724,0.385849,-9.958984,0.856953,-0.864629,-0.00798,0.005829,-0.013199,-0.006774,-0.013169,0.007249,0.530793,0.491636,-0.491042,-0.485212,-0.004134,-0.03369
225,1917660483736235,0.420868,10.027496,0.413391,-9.968695,0.884186,-0.861518,-0.006912,0.00795,-0.011078,-0.008747,-0.010921,0.006158,0.530808,0.49164,-0.490991,-0.485244,-0.004137,-0.033878
226,1917660488680082,0.412491,9.995178,0.440323,-9.93569,0.908658,-0.850815,-0.005844,0.002625,-0.011078,-0.003382,-0.011131,0.005332,0.530819,0.491634,-0.490941,-0.485287,-0.00414,-0.034067
227,1917660493623930,0.355621,9.972427,0.424164,-9.916458,0.888532,-0.793749,-0.005844,0.004761,-0.01001,-0.005465,-0.009968,0.005271,0.53082,0.491645,-0.490882,-0.485335,-0.004143,-0.034257
228,1917660498445707,0.398712,9.943695,0.394821,-9.887115,0.858688,-0.836455,-0.005844,0.00795,-0.007874,-0.008553,-0.007692,0.0052,0.530822,0.491644,-0.490846,-0.485371,-0.004145,-0.03445
229,1917660503420072,0.433441,9.9814,0.381058,-9.923691,0.847469,-0.873842,-0.006912,0.011154,-0.006805,-0.011754,-0.006514,0.006156,0.530842,0.491651,-0.490806,-0.485382,-0.004146,-0.034649
230,1917660508394438,0.490891,9.983795,0.378067,-9.923459,0.84658,-0.931776,-0.00798,0.009018,-0.007874,-0.00972,-0.007714,0.007282,0.530869,0.491643,-0.49078,-0.485386,-0.004146,-0.034839
231,1917660513307768,0.46875,10.025101,0.369095,-9.966094,0.838615,-0.912272,-0.005844,0.009018,-0.008942,-0.009666,-0.008711,0.005111,0.530886,0.491647,-0.490753,-0.485391,-0.004145,-0.035031
232,1917660518251615,0.46994,10.029892,0.326599,-9.972657,0.796215,-0.915734,-0.00798,0.012207,-0.01001,-0.012996,-0.009703,0.00706,0.5309,0.491662,-0.490727,-0.485388,-0.004144,-0.035222
233,1917660523195463,0.447205,9.98201,0.325989,-9.925979,0.792262,-0.891271,-0.013306,0.009018,-0.011078,-0.010112,-0.01109,0.012485,0.530911,0.491672,-0.490693,-0.485401,-0.004142,-0.035423
234,1917660528139311,0.417877,9.974228,0.349335,-9.918599,0.813743,-0.860825,-0.014374,0.001556,-0.008942,-0.002622,-0.009331,0.013966,0.530915,0.491669,-0.490659,-0.485432,-0.00414,-0.035622
235,1917660533083158,0.438828,10.013733,0.323608,-9.958212,0.790191,-0.884176,-0.015442,-0.004837,-0.007874,0.003755,-0.00859,0.015361,0.530913,0.491659,-0.490643,-0.485461,-0.004137,-0.035821
236,1917660538027006,0.402313,9.999359,0.324203,-9.945642,0.788401,-0.846494,-0.019699,-0.010162,-0.006805,0.008916,-0.007905,0.019891,0.530904,0.491642,-0.490623,-0.485507,-0.004134,-0.036019
237,1917660542970854,0.37059,9.985001,0.379272,-9.930562,0.840973,-0.811167,-0.023956,-0.019745,-0.005737,0.018328,-0.007414,0.024613,0.530895,0.491602,-0.490594,-0.485587,-0.00413,-0.036218
238,1917660547914701,0.332886,9.970627,0.451691,-9.915021,0.910524,-0.76911,-0.021835,-0.021881,-0.003616,0.020655,-0.005324,0.022664,0.530892,0.491551,-0.490551,-0.485686,-0.004126,-0.036417
239,1917660552828031,0.316711,9.989182,0.471436,-9.933619,0.929827,-0.751657,-0.017563,-0.027206,0.002777,0.026449,0.000961,0.018865,0.530885,0.491492,-0.49052,-0.485785,-0.004123,-0.036615
240,1917660557771879,0.342453,10.047836,0.491196,-9.990272,0.952704,-0.777482,-0.015442,-0.034653,0.005981,0.034121,0.003895,0.017194,0.530878,0.491415,-0.490507,-0.485884,-0.004119,-0.036814
241,1917660562715727,0.384949,10.064606,0.504364,-10.004594,0.968099,-0.818458,-0.009048,-0.032532,0.007034,0.03235,0.005256,0.010748,0.530878,0.491335,-0.490507,-0.485965,-0.004096,-0.037042
242,1917660567659574,0.395126,10.003555,0.531296,-9.94213,0.992906,-0.823285,-0.003723,-0.030396,0.010239,0.030605,0.008731,0.005448,0.530886,0.491252,-0.490511,-0.486036,-0.004071,-0.037271
243,1917660572572905,0.432236,9.977814,0.463058,-9.917729,0.925454,-0.860374,0.001602,-0.02507,0.010239,0.025537,0.009151,-0.000109,0.530887,0.49119,-0.490537,-0.486071,-0.004046,-0.037499
244,1917660577516752,0.504669,9.970032,0.360718,-9.911035,0.826321,-0.935473,-0.000519,-0.01123,0.007034,0.011489,0.006499,0.001274,0.530896,0.491153,-0.490575,-0.486061,-0.00402,-0.037726
245,1917660582460600,0.462173,9.952072,0.478027,-9.889935,0.94165,-0.887918,0.001602,-0.003769,0.002777,0.003956,0.002658,-0.00133,0.530927,0.49112,-0.490563,-0.486072,-0.003995,-0.037952
246,1917660587434965,0.457382,9.932327,0.564819,-9.866642,1.027764,-0.87897,0.004807,-0.003769,0.003845,0.004151,0.003834,-0.004491,0.530973,0.491072,-0.490537,-0.486097,-0.003969,-0.038179
247,1917660592317778,0.438828,9.96524,0.528305,-9.901931,0.992248,-0.863067,0.013321,-0.002701,-0.000412,0.003292,-7.4e-05,-0.013193,0.530989,0.491049,-0.490522,-0.486117,-0.003944,-0.038405
248,1917660597414213,0.463959,9.993378,0.446304,-9.932397,0.91264,-0.892559,0.017578,0.002625,-0.00148,-0.001873,-0.000753,-0.01772,0.53099,0.491055,-0.490528,-0.486104,-0.003918,-0.038632
249,1917660602419096,0.454391,9.9814,0.419373,-9.922012,0.885057,-0.883722,0.016525,0.004761,0.000641,-0.00396,0.001424,-0.016687,0.530992,0.491065,-0.490535,-0.486084,-0.003893,-0.038858
250,1917660607362944,0.434631,9.976624,0.373276,-9.920162,0.838045,-0.865709,0.016525,0.003693,-0.000412,-0.00294,0.000323,-0.016677,0.530978,0.49109,-0.490548,-0.486062,-0.003866,-0.039084
251,1917660612428862,0.508255,10.013733,0.346344,-9.9549,0.815796,-0.942042,0.015457,0.002625,-0.00148,-0.00197,-0.000829,-0.015602,0.53097,0.491105,-0.49058,-0.486022,-0.003839,-0.039312
252,1917660617403227,0.556732,10.038864,0.375076,-9.976454,0.847971,-0.990391,0.013321,-0.002701,-0.004684,0.003107,-0.004343,-0.013348,0.530971,0.491097,-0.490617,-0.485993,-0.003811,-0.039545
253,1917660622347074,0.495682,10.056824,0.352936,-9.998163,0.824673,-0.930843,0.0112,-0.004837,-0.006805,0.005047,-0.006631,-0.011212,0.530951,0.491105,-0.490643,-0.485979,-0.003784,-0.03977
254,1917660627290922,0.462769,10.061615,0.403214,-10.002338,0.873778,-0.895907,0.0112,-0.010162,-0.006805,0.010361,-0.006872,-0.010975,0.53093,0.491103,-0.490658,-0.48599,-0.003755,-0.039996
255,1917660632234770,0.458572,10.050842,0.46666,-9.98909,0.936344,-0.888068,0.015457,-0.017609,-0.006805,0.017988,-0.007063,-0.014894,0.530907,0.491083,-0.490674,-0.486018,-0.003726,-0.040224
256,1917660637178617,0.377777,10.02211,0.5289,-9.961598,0.993602,-0.80266,0.023972,-0.02507,-0.006805,0.025824,-0.007107,-0.023067,0.530862,0.491069,-0.49068,-0.486075,-0.003696,-0.040453
257,1917660642122465,0.35144,10.035873,0.565414,-9.975159,1.028932,-0.774265,0.031433,-0.029327,-0.002548,0.030597,-0.002792,-0.030177,0.530811,0.491053,-0.490693,-0.486135,-0.003665,-0.040682
258,1917660647066313,0.373581,10.040665,0.469055,-9.983274,0.933181,-0.798782,0.036758,-0.028275,0.001709,0.029971,0.001686,-0.03539,0.530744,0.491055,-0.490741,-0.486158,-0.003633,-0.040911
259,1917660651979643,0.365204,10.082565,0.297272,-10.033025,0.76271,-0.797794,0.036758,-0.017609,0.004913,0.019462,0.005358,-0.035747,0.530656,0.491106,-0.490811,-0.486131,-0.003601,-0.041141
260,1917660656892973,0.46756,10.057419,0.378662,-9.999735,0.846789,-0.895564,0.030365,-0.010162,0.007034,0.01183,0.007589,-0.029618,0.530626,0.491114,-0.490872,-0.486095,-0.003568,-0.041369
261,1917660661806303,0.445404,10.022705,0.570206,-9.957778,1.036098,-0.864503,0.033569,-0.012283,0.005981,0.014045,0.00655,-0.032762,0.530624,0.491088,-0.490893,-0.486102,-0.003534,-0.041599
262,1917660666719633,0.353821,9.990982,0.552841,-9.931098,1.013918,-0.77189,0.041016,-0.010162,0.008102,0.012357,0.009014,-0.040215,0.530597,0.491094,-0.490906,-0.486112,-0.0035,-0.041828
263,1917660671632963,0.334671,9.940109,0.462463,-9.885166,0.920385,-0.7536,0.047409,-0.006958,0.011307,0.009587,0.012567,-0.046627,0.530548,0.491131,-0.490942,-0.486091,-0.003472,-0.042066
264,1917660676546293,0.384949,9.96524,0.381058,-9.911509,0.842094,-0.807597,0.046341,-0.008026,0.015564,0.010789,0.016724,-0.045366,0.530497,0.491168,-0.49101,-0.486041,-0.003443,-0.042303
265,1917660681459623,0.458572,9.956268,0.359512,-9.900097,0.823525,-0.881296,0.042084,-0.006958,0.017685,0.009623,0.018738,-0.041092,0.530466,0.491186,-0.491094,-0.485972,-0.003415,-0.042541
266,1917660686433988,0.462769,9.953278,0.328995,-9.898205,0.793866,-0.886233,0.038895,-0.006958,0.015564,0.009386,0.016506,-0.037986,0.53043,0.491208,-0.491179,-0.485903,-0.003386,-0.042778
267,1917660691225248,0.471146,9.979004,0.339767,-9.923002,0.806908,-0.895044,0.034622,-0.009094,0.015564,0.011324,0.016262,-0.03363,0.530402,0.491218,-0.491258,-0.485845,-0.003358,-0.043016
268,1917660696169096,0.492096,9.977219,0.306244,-9.921694,0.774998,-0.91655,0.029297,-0.012283,0.013428,0.014172,0.013803,-0.028251,0.530369,0.491222,-0.491345,-0.485787,-0.003329,-0.043254
269,1917660701021391,0.495682,9.961655,0.343353,-9.904387,0.812257,-0.917397,0.022919,-0.017609,0.009171,0.019011,0.009099,-0.0218,0.530343,0.491208,-0.491418,-0.485757,-0.0033,-0.043492
270,1917660705965238,0.46994,9.956863,0.394821,-9.898537,0.863334,-0.888559,0.023972,-0.02507,0.011307,0.026597,0.010923,-0.022457,0.530314,0.491178,-0.491489,-0.485747,-0.003272,-0.043729
271,1917660710909086,0.469345,9.996368,0.441513,-9.935998,0.912461,-0.886522,0.02504,-0.032532,0.011307,0.034089,0.010613,-0.023204,0.530283,0.491131,-0.49156,-0.485756,-0.003244,-0.043965
272,1917660715852934,0.465164,10.00235,0.392441,-9.944417,0.864228,-0.882517,0.027176,-0.037857,0.010239,0.039448,0.009368,-0.025151,0.530231,0.491093,-0.491649,-0.48576,-0.003217,-0.044197
273,1917660720766264,0.418472,10.033478,0.260147,-9.983538,0.732173,-0.84047,0.02504,-0.029327,0.010239,0.030837,0.009684,-0.023393,0.530156,0.491102,-0.491741,-0.485741,-0.00319,-0.044432
274,1917660725710112,0.414886,9.997559,0.326599,-9.94496,0.796942,-0.832285,0.015457,-0.017609,0.010239,0.018715,0.009911,-0.014331,0.530119,0.491098,-0.491792,-0.485734,-0.003163,-0.044663
275,1917660730623442,0.405899,10.007141,0.431335,-9.950317,0.901965,-0.819223,0.014389,-0.019745,0.01236,0.020892,0.011896,-0.013103,0.530104,0.491066,-0.491822,-0.485751,-0.003134,-0.044909
276,1917660735567289,0.402908,10.014923,0.393036,-9.959985,0.864184,-0.816853,0.019714,-0.021881,0.01236,0.023258,0.011967,-0.018331,0.530071,0.491048,-0.491869,-0.485758,-0.003106,-0.045148
277,1917660740511137,0.389145,10.022705,0.376877,-9.969144,0.848033,-0.803224,0.023972,-0.017609,0.01236,0.019181,0.012297,-0.022768,0.530033,0.491047,-0.491916,-0.485754,-0.003077,-0.045385
278,1917660745454985,0.341263,10.005951,0.412186,-9.953048,0.880734,-0.752637,0.029297,-0.019745,0.013428,0.021592,0.013433,-0.027961,0.529984,0.491051,-0.491956,-0.485762,-0.003048,-0.045623
279,1917660750368315,0.334671,9.995773,0.46785,-9.940783,0.935503,-0.742941,0.033569,-0.018677,0.016632,0.020854,0.016815,-0.032167,0.529947,0.491047,-0.49199,-0.485772,-0.003019,-0.04586
280,1917660755312162,0.341858,10.021515,0.420563,-9.968314,0.889651,-0.752148,0.039963,-0.016556,0.018753,0.019109,0.019227,-0.038574,0.529898,0.491061,-0.492043,-0.485758,-0.00299,-0.046097
281,1917660760256010,0.37178,10.04425,0.393036,-9.990934,0.864479,-0.78326,0.043152,-0.016556,0.021957,0.019389,0.022519,-0.041657,0.529849,0.491074,-0.492115,-0.485725,-0.002961,-0.046333
282,1917660765199858,0.464554,10.013733,0.343948,-9.958568,0.818123,-0.875563,0.045288,-0.017609,0.024078,0.020627,0.024643,-0.043681,0.529808,0.491077,-0.492223,-0.485658,-0.002934,-0.04658
283,1917660770143705,0.542969,10.025101,0.214066,-9.972245,0.692841,-0.958052,0.046341,-0.015488,0.019821,0.018367,0.020505,-0.044972,0.529751,0.4911,-0.492367,-0.485552,-0.002908,-0.046827
284,1917660775057035,0.584274,10.053238,0.133255,-10.00202,0.616301,-1.00322,0.038895,-0.001633,0.016632,0.004074,0.017716,-0.038231,0.529707,0.491143,-0.492503,-0.485417,-0.002882,-0.047074
285,1917660779970365,0.52861,10.058624,0.252975,-10.004311,0.735381,-0.944536,0.030365,0.009018,0.011307,-0.007165,0.012627,-0.030339,0.529694,0.491179,-0.492572,-0.485324,-0.002856,-0.047321
286,1917660784914213,0.444214,10.0233,0.373886,-9.967237,0.852189,-0.855361,0.030365,0.00795,0.009171,-0.006194,0.010442,-0.030364,0.529687,0.491208,-0.492597,-0.485278,-0.002831,-0.047569
287,1917660789735990,0.444809,10.011337,0.379272,-9.954954,0.857425,-0.855812,0.031433,0.009018,0.011307,-0.007114,0.012653,-0.031408,0.529685,0.491234,-0.492622,-0.485229,-0.002806,-0.047817
288,1917660794740873,0.386154,10.050842,0.361908,-9.997684,0.840058,-0.800012,0.034622,0.00795,0.011307,-0.005907,0.012695,-0.03455,0.529661,0.491281,-0.492644,-0.485184,-0.002781,-0.048067
289,1917660799837309,0.374176,9.990387,0.457077,-9.933546,0.931913,-0.782923,0.039963,0.006882,0.014496,-0.004462,0.015986,-0.039738,0.529651,0.491312,-0.492657,-0.485151,-0.002757,-0.048319
290,1917660804689604,0.38855,9.9814,0.595947,-9.91762,1.07097,-0.792569,0.047409,0.000488,0.018753,0.002439,0.020161,-0.046766,0.529663,0.491304,-0.492663,-0.485139,-0.002733,-0.048581
291,1917660809633451,0.460373,10.035278,0.564819,-9.96952,1.045527,-0.86793,0.059128,0.004761,0.020889,-0.001211,0.022837,-0.058584,0.529675,0.491307,-0.492703,-0.485083,-0.00271,-0.048831
292,1917660814577299,0.543564,10.095734,0.536682,-10.027313,1.024261,-0.954613,0.06871,-0.000565,0.019821,0.00448,0.021796,-0.067964,0.529677,0.491307,-0.492783,-0.485,-0.002687,-0.049083
293,1917660819490629,0.486115,10.104111,0.598938,-10.035304,1.086111,-0.895045,0.081497,-0.016556,0.018753,0.020948,0.020344,-0.080093,0.529645,0.491304,-0.492871,-0.484948,-0.002665,-0.049348
294,1917660824434477,0.441818,10.12326,0.723434,-10.050673,1.210676,-0.846925,0.097473,-0.020813,0.019821,0.025937,0.021665,-0.095838,0.529606,0.491299,-0.49295,-0.484916,-0.002643,-0.04961
295,1917660829378324,0.423264,10.138229,0.78389,-10.063686,1.271696,-0.826107,0.115585,-0.027206,0.019821,0.033096,0.021872,-0.113663,0.529547,0.4913,-0.493042,-0.484886,-0.002622,-0.049862
296,1917660834322172,0.431641,10.163956,0.794662,-10.088522,1.284372,-0.834223,0.137955,-0.029327,0.019821,0.036172,0.022383,-0.135923,0.529462,0.491324,-0.493162,-0.484832,-0.002601,-0.050118
297,1917660839266020,0.38855,10.135239,0.798248,-10.061644,1.285405,-0.788889,0.158203,-0.031464,0.019821,0.039162,0.022806,-0.156068,0.529343,0.491379,-0.493299,-0.484767,-0.00258,-0.050377
298,1917660844209867,0.383163,10.116074,0.76712,-10.044255,1.253483,-0.782332,0.177368,-0.041046,0.026215,0.049817,0.029195,-0.174635,0.52919,0.491447,-0.493483,-0.484678,-0.002559,-0.050634
299,1917660849123197,0.389145,10.108292,0.766525,-10.03637,1.253081,-0.78608,0.198685,-0.055969,0.030472,0.065776,0.033219,-0.19521,0.529003,0.491516,-0.493715,-0.484577,-0.002538,-0.050893
300,1917660854067045,0.347839,10.129852,0.798843,-10.058338,1.285306,-0.742237,0.223175,-0.070877,0.03154,0.081681,0.034098,-0.219068,0.528766,0.491599,-0.493982,-0.484478,-0.002517,-0.05115
301,1917660859010893,0.299362,10.110092,0.889832,-10.036683,1.374087,-0.687069,0.247681,-0.090057,0.041122,0.102206,0.043234,-0.242553,0.528499,0.491668,-0.494284,-0.48439,-0.002496,-0.051407
302,1917660863954740,0.246689,10.117874,0.943695,-10.044482,1.426726,-0.628944,0.279633,-0.114548,0.045395,0.128043,0.046944,-0.273455,0.528171,0.491743,-0.494637,-0.484312,-0.002475,-0.051661
303,1917660868898588,0.17366,10.163956,1.037079,-10.08955,1.519985,-0.549948,0.315857,-0.140121,0.053909,0.155258,0.054862,-0.30853,0.527784,0.491818,-0.495041,-0.484246,-0.002476,-0.051944
304,1917660873842436,0.123978,10.190292,1.164566,-10.111861,1.649669,-0.492448,0.362732,-0.167816,0.072021,0.185384,0.072123,-0.354055,0.527242,0.491983,-0.495742,-0.483951,-0.002478,-0.052225
305,1917660878755766,0.159897,10.169952,1.110092,-10.092589,1.597851,-0.521833,0.409607,-0.204041,0.08374,0.223597,0.082319,-0.399564,0.526616,0.492151,-0.496556,-0.483627,-0.00248,-0.052505
306,1917660883699613,0.148529,10.189697,1.067001,-10.1147,1.55874,-0.503591,0.454346,-0.239197,0.094391,0.260452,0.091139,-0.443186,0.525899,0.492323,-0.497488,-0.483274,-0.002483,-0.052782
307,1917660888612944,0.246094,10.140625,0.898804,-10.070102,1.393808,-0.592409,0.498016,-0.274338,0.107178,0.297188,0.101731,-0.485899,0.525104,0.492494,-0.498533,-0.482887,-0.002487,-0.05306
308,1917660893434721,0.512451,10.184906,0.490601,-10.12594,0.995737,-0.842239,0.52359,-0.293518,0.111435,0.316134,0.104062,-0.511808,0.523953,0.492342,-0.499959,-0.482818,-0.002492,-0.053336
309,1917660898470121,0.560928,10.511719,0.078201,-10.470271,0.603872,-0.908629,0.525711,-0.275406,0.105042,0.29783,0.097057,-0.514909,0.52341,0.492884,-0.500757,-0.482026,-0.002498,-0.053611
310,1917660903566557,0.327499,9.862289,0.0746,-9.830619,0.568421,-0.64298,0.519318,-0.246643,0.094391,0.267779,0.086297,-0.510177,0.522553,0.493159,-0.501838,-0.481551,-0.002505,-0.053878
311,1917660908571440,0.122787,9.568405,-0.085205,-9.55217,0.39584,-0.419553,0.51506,-0.2509,0.101852,0.271667,0.09206,-0.506294,0.521709,0.493417,-0.502906,-0.481087,-0.002514,-0.054161
312,1917660913576322,0.103043,10.053833,-0.104965,-10.038618,0.405686,-0.403496,0.494827,-0.248779,0.137009,0.270148,0.125779,-0.486535,0.520932,0.493609,-0.503987,-0.480601,-0.002523,-0.054431
313,1917660918520170,0.128769,9.977219,-0.052292,-9.958881,0.460307,-0.415955,0.491623,-0.24025,0.148712,0.26165,0.136529,-0.484177,0.520195,0.493785,-0.505052,-0.4801,-0.002534,-0.054717
314,1917660923464018,0.126373,9.769516,-0.030136,-9.750634,0.477779,-0.396666,0.494827,-0.249847,0.155106,0.271151,0.141035,-0.487772,0.519451,0.493944,-0.506138,-0.479599,-0.002545,-0.054992
315,1917660928377348,0.228134,9.788666,-0.064255,-9.768968,0.451253,-0.487577,0.494827,-0.258362,0.17215,0.280045,0.156197,-0.48828,0.518721,0.494066,-0.507252,-0.479085,-0.002557,-0.055276
316,1917660933290678,0.243103,9.820389,-0.033737,-9.798868,0.490775,-0.491718,0.496948,-0.269012,0.187073,0.291023,0.169074,-0.490959,0.517995,0.494158,-0.508397,-0.478563,-0.00257,-0.05556
317,1917660938204008,0.271225,9.813217,-0.08342,-9.793971,0.448604,-0.506678,0.507614,-0.287125,0.19986,0.309521,0.179255,-0.502117,0.517246,0.494225,-0.509593,-0.478031,-0.002583,-0.055844
318,1917660943117338,0.341858,9.761139,-0.158829,-9.744935,0.378065,-0.561559,0.512939,-0.309494,0.207306,0.331795,0.183812,-0.507932,0.516471,0.494261,-0.510835,-0.477506,-0.002597,-0.056126
319,1917660948030668,0.393326,9.796448,-0.258789,-9.78528,0.288173,-0.597715,0.510803,-0.327606,0.213699,0.349562,0.187577,-0.506492,0.51568,0.494265,-0.512108,-0.476992,-0.002612,-0.05641
320,1917660952943998,0.442413,9.890427,-0.347977,-9.883967,0.212712,-0.631853,0.506546,-0.335068,0.221161,0.356725,0.193021,-0.503251,0.514892,0.494245,-0.513396,-0.476479,-0.002627,-0.056694
321,1917660957857328,0.584274,9.947281,-0.274948,-9.934809,0.29552,-0.759997,0.50441,-0.341461,0.22435,0.362624,0.194224,-0.502134,0.514108,0.494203,-0.514693,-0.47597,-0.002642,-0.056979
322,1917660962770658,0.714157,9.967636,-0.274948,-9.954097,0.302922,-0.873935,0.502274,-0.347839,0.220093,0.368055,0.188002,-0.500903,0.513317,0.49415,-0.515992,-0.475473,-0.002657,-0.057263
323,1917660967683988,0.762634,10.014328,-0.347382,-10.005557,0.24059,-0.905462,0.496948,-0.341461,0.209442,0.360324,0.176271,-0.496501,0.512525,0.494111,-0.517264,-0.474984,-0.002674,-0.057537
324,1917660972597319,0.753067,10.049637,-0.466492,-10.049467,0.132009,-0.877812,0.485229,-0.326538,0.19986,0.344074,0.166384,-0.485744,0.511751,0.494088,-0.518494,-0.474501,-0.002692,-0.057812
325,1917660977541166,0.833862,10.052628,-0.565842,-10.059063,0.038542,-0.940627,0.468185,-0.31163,0.193466,0.328031,0.159951,-0.469629,0.511004,0.494069,-0.519688,-0.474021,-0.002711,-0.058089
326,1917660982485014,0.884735,10.037064,-0.638275,-10.048998,-0.028875,-0.974513,0.444763,-0.294586,0.184937,0.309735,0.151893,-0.446978,0.510295,0.49405,-0.520824,-0.473557,-0.002731,-0.058366
327,1917660987306791,0.857208,10.046646,-0.747803,-10.06715,-0.129886,-0.929878,0.418121,-0.279663,0.174286,0.293481,0.141925,-0.420878,0.509637,0.494032,-0.521871,-0.473131,-0.002752,-0.058644
328,1917660992342192,0.774612,10.017319,-0.868713,-10.047641,-0.242732,-0.829104,0.386169,-0.265823,0.165756,0.278471,0.134353,-0.389444,0.508992,0.494004,-0.522898,-0.472721,-0.002773,-0.058923
329,1917660997286039,0.818909,10.021515,-0.905228,-10.055233,-0.274115,-0.859104,0.352081,-0.251968,0.155106,0.263394,0.124991,-0.355679,0.508405,0.493964,-0.523836,-0.472356,-0.002795,-0.059202
330,1917661002229887,0.891327,10.043655,-0.904022,-10.078199,-0.268136,-0.91908,0.319061,-0.243454,0.145523,0.253801,0.116505,-0.322891,0.50786,0.4939,-0.524714,-0.472034,-0.002817,-0.059481
331,1917661007173735,1.027802,10.111298,-0.95311,-10.149891,-0.312372,-1.041724,0.283905,-0.234924,0.131668,0.243974,0.104031,-0.287719,0.507355,0.493817,-0.525528,-0.471758,-0.002839,-0.059761
332,1917661012117582,1.173843,10.140625,-0.927963,-10.178585,-0.286414,-1.177124,0.253006,-0.224274,0.114624,0.231893,0.088519,-0.256592,0.506886,0.493724,-0.526274,-0.471528,-0.002862,-0.060045
333,1917661017061430,1.283981,10.167557,-0.903427,-10.20511,-0.26069,-1.277444,0.222122,-0.209366,0.094391,0.215408,0.07027,-0.225263,0.506456,0.493631,-0.526942,-0.471342,-0.002886,-0.060343
334,1917661021974760,1.227112,10.16217,-0.907623,-10.201264,-0.25985,-1.210797,0.190155,-0.186996,0.069885,0.191246,0.048472,-0.192577,0.506065,0.493558,-0.527509,-0.471204,-0.002909,-0.060626
335,1917661026918608,1.115784,10.140015,-0.9142,-10.180526,-0.260876,-1.090715,0.163528,-0.164627,0.051773,0.167576,0.032929,-0.165403,0.505709,0.493504,-0.527995,-0.471099,-0.002932,-0.060911
336,1917661031862455,1.085861,10.105301,-0.869308,-10.14356,-0.215569,-1.055315,0.135834,-0.145447,0.037933,0.147432,0.021563,-0.137272,0.505396,0.493455,-0.528405,-0.471026,-0.002955,-0.061197
337,1917661036775785,1.011032,10.036469,-0.813644,-10.071507,-0.160422,-0.976686,0.113464,-0.126266,0.025146,0.12739,0.011074,-0.114449,0.505122,0.493418,-0.528743,-0.470979,-0.002979,-0.061485
338,1917661041719633,0.901505,9.950882,-0.71608,-9.979504,-0.063352,-0.866508,0.09642,-0.104965,0.018753,0.105695,0.006904,-0.097196,0.504887,0.493392,-0.529023,-0.470943,-0.003004,-0.061772
339,1917661046663481,0.733902,9.873672,-0.59877,-9.894056,0.056468,-0.70066,0.084702,-0.08046,0.015564,0.081033,0.005932,-0.085375,0.504694,0.493387,-0.529246,-0.470905,-0.003029,-0.062062
340,1917661051607328,0.444214,9.689911,-0.315643,-9.690064,0.339938,-0.422533,0.081497,-0.04744,0.020889,0.048457,0.013653,-0.082427,0.504554,0.493409,-0.529415,-0.470843,-0.003055,-0.062353
341,1917661056551176,0.671661,9.710266,-0.301285,-9.710214,0.346361,-0.650309,0.088959,-0.004837,0.035797,0.006969,0.031085,-0.090574,0.504486,0.493462,-0.529563,-0.470693,-0.003082,-0.062645
342,1917661061495024,1.250458,9.880249,-0.488632,-9.89512,0.145243,-1.21954,0.084702,0.001556,0.023026,-0.000278,0.018974,-0.085714,0.504429,0.493522,-0.529704,-0.470533,-0.003109,-0.06294
343,1917661066438871,1.200775,9.859894,-0.525742,-9.877181,0.109115,-1.168449,0.075104,0.004761,-0.005737,-0.005447,-0.009026,-0.074733,0.504351,0.493615,-0.529794,-0.470418,-0.00312,-0.063246
344,1917661071352201,0.681839,9.733002,-0.321045,-9.7342,0.328314,-0.660915,0.072983,0.013275,-0.017456,-0.014746,-0.020028,-0.072034,0.504265,0.493738,-0.529836,-0.470333,-0.003131,-0.063554
345,1917661076296049,0.386749,9.656998,0.158401,-9.623815,0.814273,-0.388823,0.100677,-0.026138,-0.006805,0.025196,-0.013569,-0.100232,0.504111,0.493832,-0.529949,-0.470271,-0.003143,-0.063866
346,1917661081239897,0.654892,9.856308,-0.078033,-9.840481,0.57877,-0.641654,0.145416,-0.074066,-0.003616,0.072998,-0.016044,-0.145116,0.503845,0.493921,-0.530192,-0.47019,-0.003154,-0.064181
347,1917661086183744,0.639343,9.952072,-0.446732,-9.961821,0.218207,-0.60527,0.14328,-0.049576,-0.004684,0.048468,-0.015387,-0.142909,0.5036,0.494047,-0.530411,-0.470072,-0.003165,-0.064499
348,1917661091310697,0.593246,9.896408,-0.563446,-9.9143,0.099718,-0.552018,0.117722,-0.027206,-0.003616,0.026329,-0.011536,-0.117411,0.503404,0.494176,-0.530582,-0.469953,-0.003175,-0.064819
349,1917661096132475,0.620178,9.838348,-0.582611,-9.857914,0.074788,-0.577028,0.102814,-0.020813,-0.000412,0.020235,-0.007185,-0.102679,0.50325,0.494282,-0.530724,-0.469847,-0.003184,-0.065146
350,1917661100984770,0.655502,9.873062,-0.655029,-9.897828,0.002875,-0.607707,0.09642,-0.016556,-0.000412,0.016012,-0.006604,-0.096287,0.503108,0.494387,-0.530857,-0.46974,-0.003192,-0.065476
351,1917661105745512,0.635147,9.889832,-0.659821,-9.914824,-0.000108,-0.58626,0.092148,-0.017609,-0.002548,0.016927,-0.008623,-0.091907,0.502968,0.494486,-0.53098,-0.469645,-0.003199,-0.065801
352,1917661110780912,0.612396,9.88324,-0.659225,-9.908135,0.000907,-0.56279,0.085754,-0.015488,0.000641,0.015058,-0.005,-0.085687,0.502834,0.494582,-0.531104,-0.469547,-0.003205,-0.066157
353,1917661115755278,0.617188,9.876663,-0.65802,-9.901566,0.001049,-0.566889,0.079376,-0.015488,-0.000412,0.015011,-0.005742,-0.079261,0.50271,0.49467,-0.531217,-0.46946,-0.003209,-0.066505
354,1917661120699125,0.660889,9.874863,-0.69873,-9.902871,-0.042263,-0.6076,0.076172,-0.01442,-0.000412,0.013957,-0.005526,-0.076059,0.502591,0.494754,-0.531327,-0.469374,-0.003212,-0.066859
355,1917661125642973,0.633347,9.867081,-0.705902,-9.895504,-0.048741,-0.578922,0.075104,-0.015488,0.000641,0.015095,-0.004524,-0.07505,0.502472,0.494835,-0.531437,-0.469291,-0.003214,-0.067209
356,1917661130586821,0.627365,9.882645,-0.728058,-9.912592,-0.069611,-0.57077,0.074051,-0.018677,0.001709,0.01835,-0.003654,-0.074062,0.502351,0.494911,-0.531552,-0.46921,-0.003214,-0.067556
357,1917661135530668,0.669861,9.897614,-0.751389,-9.929465,-0.094279,-0.610864,0.072983,-0.019745,0.002777,0.019488,-0.002635,-0.073057,0.502232,0.494982,-0.531671,-0.46913,-0.003214,-0.0679
358,1917661140474516,0.708176,9.886841,-0.736435,-9.917945,-0.082365,-0.648802,0.072983,-0.022934,0.001709,0.022586,-0.003949,-0.073005,0.502109,0.495048,-0.531792,-0.469053,-0.003213,-0.068245
359,1917661145418363,0.702179,9.876053,-0.734039,-9.907068,-0.080451,-0.641861,0.070847,-0.021881,0.003845,0.021689,-0.001657,-0.070991,0.501993,0.495111,-0.531912,-0.468976,-0.003211,-0.068591
360,1917661150362211,0.730316,9.869476,-0.791504,-9.904735,-0.139711,-0.665659,0.067657,-0.020813,0.003845,0.020635,-0.001429,-0.067806,0.501881,0.495171,-0.532029,-0.468899,-0.003208,-0.068937
361,1917661155306059,0.754257,9.865891,-0.808258,-9.902541,-0.157921,-0.687555,0.063385,-0.020813,0.004913,0.020728,-0.000148,-0.063603,0.501776,0.495225,-0.532143,-0.468825,-0.003205,-0.069627
362,1917661160249906,0.779999,9.867676,-0.762177,-9.901331,-0.113237,-0.714891,0.060196,-0.018677,0.004913,0.01861,0.000162,-0.060417,0.501679,0.495274,-0.532251,-0.468754,-0.003205,-0.069627
363,1917661165193754,0.778198,9.887436,-0.781921,-9.922484,-0.131441,-0.710922,0.054871,-0.019745,0.001709,0.019479,-0.002818,-0.05492,0.501584,0.495321,-0.53235,-0.468694,-0.003203,-0.069971
364,1917661170137602,0.814117,9.876663,-0.7939,-9.912884,-0.146218,-0.745049,0.051666,-0.020813,0.000641,0.020484,-0.003788,-0.051663,0.501491,0.495363,-0.532447,-0.46864,-0.003209,-0.070231
365,1917661175050932,0.816513,9.878448,-0.793289,-9.914697,-0.145716,-0.746523,0.047409,-0.018677,-0.00148,0.018227,-0.005518,-0.047286,0.501404,0.495404,-0.532533,-0.468591,-0.003215,-0.070492
366,1917661179994780,0.786575,9.860504,-0.783722,-9.896003,-0.13596,-0.716441,0.043152,-0.015488,-0.003616,0.014921,-0.007187,-0.042904,0.501323,0.495448,-0.532607,-0.468548,-0.003221,-0.070752
367,1917661184938627,0.820099,9.888031,-0.747803,-9.921214,-0.100337,-0.751296,0.038895,-0.012283,-0.002548,0.011823,-0.00566,-0.038709,0.501254,0.495486,-0.532673,-0.468506,-0.003228,-0.071013
368,1917661189882475,0.827881,9.891022,-0.725052,-9.922697,-0.078072,-0.759851,0.034622,-0.01123,-0.003616,0.010724,-0.006408,-0.034377,0.501193,0.495521,-0.53273,-0.468469,-0.003236,-0.071275
369,1917661194826322,0.848236,9.873672,-0.71608,-9.904929,-0.071685,-0.780173,0.030365,-0.01123,-0.004684,0.010676,-0.007228,-0.030064,0.501136,0.49555,-0.532782,-0.468439,-0.003243,-0.071537
370,1917661199922758,0.793762,9.921555,-0.728058,-9.953209,-0.077478,-0.724656,0.027176,-0.00589,-0.007874,0.005147,-0.009848,-0.026679,0.501083,0.49559,-0.53282,-0.468412,-0.00325,-0.071799
371,1917661204805571,0.817703,9.927536,-0.705307,-9.95774,-0.056196,-0.749801,0.023972,-0.001633,-0.008942,0.000847,-0.010429,-0.023405,0.501041,0.495629,-0.532845,-0.468386,-0.003258,-0.072063
372,1917661209627348,0.808731,9.946091,-0.671188,-9.973839,-0.020737,-0.742734,0.023972,-0.001633,-0.007874,0.000922,-0.009368,-0.023467,0.501003,0.495665,-0.532871,-0.468361,-0.003266,-0.072333
373,1917661214601713,0.799744,9.96106,-0.659821,-9.987917,-0.008225,-0.73432,0.020782,-0.001633,-0.008942,0.000869,-0.010246,-0.020218,0.500966,0.495699,-0.532891,-0.468341,-0.003274,-0.072597
374,1917661219515043,0.779404,9.956268,-0.646057,-9.982035,0.005902,-0.71477,0.018646,-0.001633,-0.01001,0.000809,-0.011185,-0.018022,0.50093,0.495732,-0.532906,-0.468326,-0.003282,-0.072863
375,1917661224428373,0.802734,9.977219,-0.649643,-10.003367,0.002061,-0.737711,0.018646,-0.001633,-0.007874,0.000958,-0.00906,-0.018148,0.500898,0.495762,-0.532925,-0.468309,-0.003291,-0.073129
376,1917661229372221,0.764435,9.990387,-0.644257,-10.015863,0.010296,-0.699796,0.019714,0.000488,-0.006805,-0.001091,-0.007913,-0.019271,0.500867,0.495795,-0.532942,-0.468287,-0.003299,-0.073396
377,1917661234316069,0.750671,10.006546,-0.614929,-10.029845,0.041116,-0.68787,0.018646,0.001556,-0.006805,-0.002149,-0.007776,-0.018202,0.50084,0.495828,-0.532955,-0.468266,-0.003308,-0.073666
378,1917661239259916,0.754257,10.006546,-0.624496,-10.030532,0.030939,-0.69095,0.016525,0.001556,-0.008942,-0.002283,-0.00978,-0.015956,0.500812,0.495861,-0.532964,-0.468251,-0.003316,-0.073938
379,1917661244173246,0.735703,9.977814,-0.627502,-10.001951,0.026713,-0.672344,0.016525,0.000488,-0.006805,-0.001069,-0.007728,-0.016086,0.500785,0.49589,-0.532976,-0.468235,-0.003325,-0.074212
380,1917661249117094,0.715347,9.995178,-0.644852,-10.020342,0.011489,-0.650864,0.016525,-0.001633,-0.006805,0.001047,-0.007877,-0.016091,0.500754,0.495918,-0.53299,-0.468222,-0.003332,-0.074487
381,1917661254060942,0.698593,10.010132,-0.674179,-10.037203,-0.01601,-0.632096,0.013321,-0.004837,-0.005737,0.004339,-0.006846,-0.012964,0.500722,0.495939,-0.533007,-0.468215,-0.00334,-0.074763
382,1917661259004789,0.692612,9.9814,-0.638275,-10.006024,0.017824,-0.628062,0.014389,-0.00589,-0.004684,0.005455,-0.005936,-0.014096,0.50069,0.495957,-0.533026,-0.468208,-0.003348,-0.075039
383,1917661263948637,0.701584,10.00415,-0.65802,-10.030182,-0.001071,-0.635366,0.015457,-0.008026,-0.004684,0.007578,-0.006149,-0.015167,0.500654,0.495974,-0.53305,-0.468202,-0.003359,-0.075301
384,1917661268861967,0.693207,10.010132,-0.65683,-10.036045,0.000952,-0.626571,0.014389,-0.010162,-0.000412,0.010012,-0.001981,-0.014364,0.500621,0.495983,-0.53308,-0.468194,-0.00337,-0.075564
385,1917661273805815,0.668671,9.986191,-0.642456,-10.011034,0.015022,-0.602332,0.014389,-0.013351,0.000641,0.013265,-0.001156,-0.014437,0.500584,0.495986,-0.533114,-0.468191,-0.00338,-0.075829
386,1917661278749662,0.674652,10.012527,-0.670593,-10.039347,-0.011458,-0.605713,0.014389,-0.016556,0.002777,0.016609,0.000747,-0.014575,0.500545,0.495984,-0.533156,-0.468187,-0.003389,-0.076094
387,1917661283693510,0.681229,10.0233,-0.639465,-10.048031,0.01997,-0.613202,0.017578,-0.018677,0.002777,0.018701,0.000406,-0.017766,0.500501,0.495981,-0.533203,-0.468183,-0.003397,-0.076362
388,1917661288637358,0.683029,10.011932,-0.625702,-10.035819,0.032933,-0.614944,0.020782,-0.018677,0.004913,0.018825,0.002337,-0.021096,0.500456,0.49598,-0.533257,-0.468172,-0.003405,-0.076631
389,1917661293550688,0.721344,10.00116,-0.626892,-10.025489,0.028867,-0.652163,0.023972,-0.019745,0.004913,0.019865,0.002066,-0.024285,0.500406,0.49598,-0.533316,-0.468158,-0.003412,-0.0769
390,1917661298494535,0.730911,9.975418,-0.660416,-10.002251,-0.006442,-0.658886,0.02504,-0.017609,0.004913,0.017725,0.002146,-0.025347,0.500355,0.495986,-0.533389,-0.468122,-0.003418,-0.077173
391,1917661303560453,0.688416,9.962845,-0.659225,-9.989378,-0.003463,-0.615777,0.026108,-0.015488,0.004913,0.015599,0.002224,-0.026408,0.500296,0.496005,-0.533455,-0.468091,-0.003423,-0.077444
392,1917661308412748,0.707565,9.972427,-0.67897,-10.000484,-0.023509,-0.633039,0.027176,-0.012283,0.002777,0.012244,0.00025,-0.027334,0.500239,0.496031,-0.533519,-0.468051,-0.003428,-0.077711
393,1917661313295561,0.695602,9.956268,-0.740616,-9.988586,-0.085291,-0.616792,0.02504,-0.010162,0.002777,0.010143,0.000523,-0.025196,0.500171,0.496071,-0.533589,-0.468001,-0.003433,-0.077993
394,1917661318239408,0.711166,9.898209,-0.753784,-9.931736,-0.103135,-0.631293,0.022919,-0.006958,0.004913,0.00711,0.002997,-0.023201,0.500114,0.496108,-0.533663,-0.467939,-0.003438,-0.078271
395,1917661323183256,0.729126,9.903595,-0.772339,-9.938549,-0.12199,-0.647967,0.017578,-0.000565,0.003845,0.000699,0.002705,-0.017784,0.50007,0.496148,-0.533728,-0.46787,-0.003442,-0.078562
396,1917661328096586,0.715347,9.899399,-0.819031,-9.937494,-0.167787,-0.631294,0.015457,0.001556,0.001709,-0.00155,0.000853,-0.015528,0.500016,0.496201,-0.533791,-0.467798,-0.003445,-0.078839
397,1917661333040434,0.690216,9.886841,-0.789108,-9.922684,-0.137354,-0.608209,0.012253,0.003693,0.001709,-0.003657,0.001198,-0.012324,0.499971,0.496252,-0.533837,-0.467739,-0.003448,-0.079118
398,1917661337984281,0.703979,9.88504,-0.772949,-9.919882,-0.122151,-0.622881,0.007996,0.005829,0.001709,-0.005756,0.001611,-0.008069,0.499934,0.496286,-0.533882,-0.467692,-0.00345,-0.079399
399,1917661342928129,0.715958,9.88205,-0.780731,-9.917548,-0.130655,-0.634285,0.004807,0.005829,0.001709,-0.005732,0.001809,-0.004886,0.499902,0.496315,-0.533927,-0.467645,-0.003451,-0.079684
400,1917661347841459,0.704575,9.928131,-0.751389,-9.961386,-0.09739,-0.624564,0.003738,0.006882,0.001709,-0.006774,0.001949,-0.003816,0.499875,0.496339,-0.533961,-0.467609,-0.003453,-0.079971
401,1917661352754789,0.681229,9.932327,-0.691544,-9.961234,-0.036165,-0.604965,0.005875,0.006882,0.000641,-0.006865,0.000752,-0.005882,0.499853,0.496359,-0.533979,-0.467591,-0.003454,-0.08026
402,1917661357729155,0.68782,9.940704,-0.680771,-9.96888,-0.025244,-0.612185,0.003738,0.006882,0.001709,-0.006774,0.001949,-0.003817,0.499839,0.496372,-0.533994,-0.467574,-0.003454,-0.080554
403,1917661362673002,0.724335,9.974823,-0.64006,-10.000353,0.015692,-0.65109,0.003738,0.005829,0.001709,-0.005724,0.001875,-0.00382,0.499841,0.496369,-0.534007,-0.46756,-0.003454,-0.080849
404,1917661367616850,0.737503,9.974823,-0.669998,-10.002549,-0.014543,-0.662359,0.003738,0.006882,0.001709,-0.006774,0.001949,-0.003817,0.49984,0.49637,-0.534029,-0.467536,-0.003453,-0.081127
405,1917661372560697,0.735107,9.962845,-0.664612,-9.9902,-0.009503,-0.660337,0.006927,0.004761,0.001709,-0.004682,0.0016,-0.007006,0.499834,0.496374,-0.534053,-0.46751,-0.003451,-0.081408
406,1917661377504545,0.733307,10.00235,-0.626297,-10.02691,0.031842,-0.661039,0.014389,0.003693,0.001709,-0.003673,0.001055,-0.014457,0.499832,0.496385,-0.534072,-0.467479,-0.003448,-0.081691
407,1917661382448393,0.758453,9.997559,-0.641861,-10.023389,0.015041,-0.68537,0.015457,0.003693,0.003845,-0.003532,0.003114,-0.015658,0.499833,0.496392,-0.534102,-0.467436,-0.003445,-0.081974
408,1917661387331205,0.780594,10.037674,-0.65802,-10.064689,0.001078,-0.706487,0.018646,0.002625,0.002777,-0.002564,0.001773,-0.018776,0.499829,0.496402,-0.534142,-0.467384,-0.00344,-0.08226
409,1917661392275053,0.791962,10.008347,-0.65683,-10.035422,6.7e-05,-0.718162,0.018646,0.002625,-0.00148,-0.002862,-0.002467,-0.018506,0.499822,0.496415,-0.534179,-0.467335,-0.003435,-0.082548
410,1917661397218901,0.791962,9.970032,-0.652634,-9.996896,0.00209,-0.718778,0.018646,0.003693,-0.002548,-0.004002,-0.003457,-0.018435,0.499817,0.49643,-0.534213,-0.467286,-0.003429,-0.082836
411,1917661402132231,0.78418,9.92514,-0.693329,-9.95489,-0.040598,-0.708864,0.016525,0.005829,-0.002548,-0.006116,-0.003174,-0.016311,0.499807,0.496454,-0.53425,-0.467229,-0.003422,-0.083124
412,1917661407106596,0.771622,9.931122,-0.726257,-9.963048,-0.071835,-0.694586,0.013321,0.00795,-0.003616,-0.008283,-0.003886,-0.013039,0.499792,0.496487,-0.534284,-0.467171,-0.003414,-0.083407
413,1917661412019926,0.783585,9.917358,-0.763962,-9.952041,-0.110666,-0.704687,0.0112,0.011154,-0.002548,-0.011388,-0.002463,-0.010982,0.499781,0.496525,-0.534322,-0.467101,-0.003404,-0.083702
414,1917661416994291,0.779404,9.894608,-0.786713,-9.930878,-0.134277,-0.699535,0.007996,0.009018,-0.003616,-0.009308,-0.003474,-0.007722,0.499763,0.496563,-0.534361,-0.467034,-0.003379,-0.084296
415,1917661421938139,0.719543,9.88504,-0.771744,-9.919848,-0.11631,-0.640708,0.003738,0.009018,-0.004684,-0.009352,-0.004265,-0.003404,0.49973,0.496593,-0.534392,-0.467002,-0.003379,-0.084296
416,1917661426881987,0.706375,9.88324,-0.781326,-9.918576,-0.125369,-0.627494,0.00267,0.012207,-0.004684,-0.012525,-0.003972,-0.002329,0.499708,0.496643,-0.534404,-0.466957,-0.003364,-0.084584
417,1917661431825834,0.701584,9.900604,-0.73703,-9.932764,-0.079871,-0.625477,-0.000519,0.011154,-0.002548,-0.011301,-0.001716,0.000713,0.499687,0.496663,-0.534421,-0.46694,-0.003348,-0.084879
418,1917661436769682,0.679443,9.910782,-0.726257,-9.942002,-0.06742,-0.603996,-0.002655,0.009018,-0.004684,-0.009305,-0.003856,0.002977,0.499664,0.496685,-0.534425,-0.466937,-0.00333,-0.085173
419,1917661441713530,0.663879,9.931122,-0.711288,-9.961097,-0.05057,-0.589877,-0.004791,0.011154,-0.003616,-0.011345,-0.002505,0.005045,0.499659,0.496717,-0.534408,-0.466928,-0.00331,-0.08547
420,1917661446657377,0.663879,9.943695,-0.681366,-9.971534,-0.020344,-0.591752,-0.004791,0.010086,-0.003616,-0.01028,-0.002581,0.005042,0.499647,0.496729,-0.534398,-0.466939,-0.003289,-0.085768
421,1917661451570707,0.666275,9.959259,-0.687347,-9.987506,-0.025831,-0.593675,-0.003723,0.00795,-0.003616,-0.008157,-0.0028,0.00397,0.499632,0.496744,-0.534391,-0.466948,-0.003267,-0.086064
422,1917661456514555,0.672256,9.990982,-0.647842,-10.016422,0.014939,-0.602089,0.000534,0.00795,-0.003616,-0.008187,-0.003074,-0.000278,0.499622,0.496754,-0.534381,-0.466959,-0.003243,-0.086365
423,1917661461458403,0.690216,9.986786,-0.643051,-10.012028,0.017989,-0.620318,0.004807,0.003693,-0.003616,-0.003972,-0.003649,-0.004553,0.499611,0.496765,-0.534379,-0.466961,-0.003218,-0.086663
424,1917661466402250,0.677048,10.006546,-0.633484,-10.030981,0.029366,-0.607696,0.006927,0.005829,-0.003616,-0.006118,-0.003635,-0.006663,0.499597,0.496778,-0.534375,-0.466967,-0.003178,-0.086945
425,1917661471346098,0.680038,10.006546,-0.615524,-10.02973,0.046558,-0.612131,0.010132,0.005829,-0.005737,-0.006289,-0.005953,-0.009724,0.499588,0.496803,-0.534361,-0.466966,-0.003138,-0.087225
426,1917661476289946,0.659683,10.020309,-0.610138,-10.042929,0.053511,-0.592308,0.015457,0.003693,-0.005737,-0.004196,-0.006447,-0.015043,0.499567,0.496835,-0.53435,-0.466967,-0.003096,-0.087507
427,1917661481203276,0.654297,10.007141,-0.627502,-10.03097,0.035044,-0.585865,0.017578,0.000488,-0.003616,-0.000865,-0.004699,-0.017305,0.499538,0.496867,-0.534351,-0.466963,-0.003052,-0.087789
428,1917661486147123,0.694397,10.012527,-0.609543,-10.035368,0.050423,-0.627176,0.018646,0.002625,-0.003616,-0.003004,-0.004619,-0.018365,0.499522,0.496891,-0.534354,-0.466951,-0.003006,-0.088071
429,1917661491029936,0.692017,10.021515,-0.63707,-10.046222,0.023437,-0.623232,0.021851,0.004761,-0.004684,-0.005232,-0.005741,-0.021488,0.499498,0.496928,-0.534362,-0.466928,-0.002959,-0.088353
430,1917661495943266,0.674652,10.004745,-0.662811,-10.031155,-0.002806,-0.604478,0.022919,0.004761,-0.005737,-0.005312,-0.006861,-0.022485,0.499462,0.496976,-0.534373,-0.466903,-0.002911,-0.088634
431,1917661501039701,0.671066,9.991577,-0.660416,-10.017802,-0.001722,-0.60149,0.022919,0.00795,-0.005737,-0.008492,-0.006641,-0.022476,0.49943,0.49703,-0.534378,-0.466874,-0.002862,-0.088913
432,1917661505891996,0.687225,9.971222,-0.654434,-9.997171,0.001269,-0.618482,0.023972,0.009018,-0.006805,-0.009638,-0.007701,-0.023454,0.499403,0.49708,-0.534384,-0.466843,-0.002811,-0.089192
433,1917661510774809,0.712357,9.957458,-0.695724,-9.986449,-0.042701,-0.641384,0.022919,0.010086,-0.006805,-0.010695,-0.007561,-0.0224,0.499375,0.497133,-0.534401,-0.466796,-0.00276,-0.089471
434,1917661515718656,0.701584,9.956863,-0.731049,-9.988209,-0.077453,-0.628832,0.023972,0.011154,-0.003616,-0.011544,-0.004385,-0.023657,0.499341,0.497194,-0.534427,-0.466738,-0.002707,-0.089747
435,1917661520662504,0.697998,9.945496,-0.719666,-9.976029,-0.067011,-0.626471,0.022919,0.010086,-0.004684,-0.010545,-0.005458,-0.022538,0.499307,0.497252,-0.534449,-0.466688,-0.002654,-0.090021
436,1917661525606352,0.699783,9.928726,-0.750793,-9.961439,-0.099736,-0.626701,0.019714,0.010086,-0.007874,-0.010743,-0.008427,-0.019129,0.499268,0.497316,-0.534469,-0.466638,-0.002599,-0.090295
437,1917661530550199,0.680038,9.92334,-0.763962,-9.956818,-0.112474,-0.606564,0.018646,0.010086,-0.006805,-0.010661,-0.007297,-0.018133,0.499225,0.497383,-0.534489,-0.46659,-0.002544,-0.090567
438,1917661535494047,0.654892,9.941299,-0.759781,-9.974243,-0.106165,-0.582083,0.016525,0.009018,-0.006805,-0.00958,-0.007235,-0.016018,0.499179,0.497451,-0.534501,-0.466553,-0.002488,-0.090837
439,1917661540437895,0.687225,9.950287,-0.760971,-9.983489,-0.109241,-0.61464,0.013321,0.009018,-0.004684,-0.00941,-0.004915,-0.012962,0.499147,0.497505,-0.534518,-0.466511,-0.002432,-0.091106
440,1917661545381742,0.66568,9.948486,-0.758575,-9.981344,-0.106176,-0.593737,0.0112,0.010086,-0.006805,-0.010608,-0.006813,-0.010702,0.499113,0.497563,-0.534524,-0.466478,-0.002375,-0.091371
441,1917661550325590,0.68782,9.945496,-0.718475,-9.975696,-0.068393,-0.618908,0.0112,0.009018,-0.006805,-0.009542,-0.006889,-0.010704,0.49909,0.497608,-0.534527,-0.466451,-0.002317,-0.091637
442,1917661555269438,0.681229,9.949081,-0.686752,-9.976988,-0.036635,-0.614988,0.010132,0.011154,-0.007874,-0.011739,-0.007735,-0.009563,0.499077,0.49765,-0.534517,-0.466431,-0.002259,-0.091902
443,1917661560182768,0.658493,9.935913,-0.731644,-9.966781,-0.081447,-0.589777,0.009064,0.010086,-0.007874,-0.010665,-0.007739,-0.008499,0.499049,0.497703,-0.534512,-0.46641,-0.002201,-0.092165
444,1917661565126615,0.66806,9.941299,-0.717285,-9.971195,-0.068054,-0.600776,0.009064,0.011154,-0.007874,-0.01173,-0.007667,-0.008497,0.499028,0.497752,-0.534505,-0.466389,-0.002151,-0.09242
445,1917661570070463,0.659088,9.952667,-0.69812,-9.981128,-0.048184,-0.593614,0.006927,0.011154,-0.005737,-0.011568,-0.005398,-0.006508,0.499015,0.497794,-0.534492,-0.466374,-0.002101,-0.092673
446,1917661575014311,0.636948,9.943695,-0.69873,-9.972026,-0.048675,-0.572002,0.005875,0.011154,-0.005737,-0.01156,-0.005329,-0.005459,0.498998,0.497838,-0.534473,-0.466365,-0.002051,-0.092923
447,1917661579958158,0.656693,9.956268,-0.667007,-9.982468,-0.018128,-0.5945,0.004807,0.014343,-0.005737,-0.014734,-0.005038,-0.004389,0.498998,0.497875,-0.534447,-0.466356,-0.001999,-0.093172
448,1917661584871488,0.695007,9.924545,-0.667603,-9.951056,-0.02378,-0.633435,0.006927,0.014343,-0.006805,-0.014821,-0.006243,-0.006433,0.499002,0.497907,-0.53443,-0.466337,-0.001947,-0.09342
449,1917661589693266,0.693207,9.931732,-0.67778,-9.95886,-0.033539,-0.631787,0.009064,0.017532,-0.005737,-0.017941,-0.005103,-0.008633,0.499007,0.497945,-0.534415,-0.466308,-0.001894,-0.093666
450,1917661594881254,0.641724,9.978409,-0.667603,-10.004364,-0.017541,-0.581915,0.009064,0.017532,-0.006805,-0.018013,-0.006168,-0.008563,0.499002,0.497997,-0.534384,-0.466294,-0.00184,-0.093911
451,1917661599733549,0.696793,9.953278,-0.668793,-9.979635,-0.024365,-0.637783,0.007996,0.019669,-0.005737,-0.020064,-0.004886,-0.007568,0.499014,0.498034,-0.534363,-0.466265,-0.001785,-0.094154
452,1917661604707914,0.720139,9.92334,-0.687347,-9.951117,-0.046528,-0.660896,0.0112,0.020737,-0.005737,-0.021147,-0.005027,-0.010765,0.499024,0.498076,-0.534353,-0.466221,-0.00173,-0.094397
453,1917661609651762,0.712357,9.956268,-0.710693,-9.985469,-0.067117,-0.652429,0.014389,0.0186,-0.005737,-0.019033,-0.00539,-0.013951,0.499021,0.498125,-0.534352,-0.466173,-0.001674,-0.094638
454,1917661614595610,0.702789,9.94429,-0.681961,-9.971435,-0.038927,-0.645762,0.014389,0.0186,-0.005737,-0.019031,-0.005392,-0.013952,0.499023,0.498171,-0.534343,-0.466133,-0.001617,-0.09488
455,1917661619539457,0.703979,9.974228,-0.682556,-10.001292,-0.037811,-0.647855,0.014389,0.019669,-0.006805,-0.02017,-0.006382,-0.01388,0.499025,0.498219,-0.534331,-0.466094,-0.00156,-0.095121
456,1917661624483305,0.733307,9.98439,-0.709503,-10.013356,-0.065977,-0.676321,0.014389,0.020737,-0.007874,-0.021307,-0.007374,-0.013809,0.499027,0.498268,-0.534327,-0.466042,-0.001502,-0.095364
457,1917661629396635,0.722534,9.974228,-0.699921,-10.002428,-0.056594,-0.667293,0.017578,0.021805,-0.007874,-0.022388,-0.007517,-0.016991,0.499027,0.498322,-0.534322,-0.46599,-0.001443,-0.095607
458,1917661634309965,0.718948,9.970032,-0.693939,-9.997752,-0.050864,-0.66516,0.018646,0.020737,-0.006805,-0.021253,-0.006601,-0.018131,0.499027,0.498375,-0.534318,-0.465939,-0.001384,-0.095851
459,1917661639223295,0.717743,9.986191,-0.717285,-10.015407,-0.073158,-0.663423,0.018646,0.021805,-0.007874,-0.02239,-0.007594,-0.01806,0.499021,0.498435,-0.534316,-0.465884,-0.001324,-0.096097
460,1917661644167143,0.715347,9.955673,-0.701111,-9.983757,-0.059235,-0.663208,0.020782,0.021805,-0.007874,-0.022398,-0.007741,-0.020193,0.499016,0.498494,-0.534313,-0.465829,-0.001264,-0.096344
461,1917661649080473,0.72612,9.934723,-0.69693,-9.962537,-0.057369,-0.675229,0.018646,0.019669,-0.007874,-0.020255,-0.007746,-0.018063,0.499014,0.498545,-0.534311,-0.465777,-0.001204,-0.09659
462,1917661654024321,0.711761,9.948486,-0.714279,-9.977344,-0.072946,-0.660682,0.019714,0.019669,-0.006805,-0.020185,-0.006757,-0.019203,0.499006,0.498603,-0.534313,-0.465723,-0.001143,-0.096841
463,1917661658968168,0.706375,9.930527,-0.705307,-9.958708,-0.065135,-0.656944,0.019714,0.020737,-0.006805,-0.021248,-0.006686,-0.019204,0.499,0.498661,-0.53431,-0.46567,-0.001083,-0.097091
464,1917661663912016,0.695602,9.92215,-0.718475,-9.95115,-0.078408,-0.646183,0.018646,0.0186,-0.006805,-0.019109,-0.006763,-0.018139,0.498988,0.498719,-0.53431,-0.465621,-0.001016,-0.09732
465,1917661668855863,0.706375,9.939499,-0.714279,-9.968169,-0.074083,-0.657932,0.018646,0.014343,-0.007874,-0.014935,-0.008123,-0.018066,0.498973,0.498771,-0.534313,-0.465578,-0.000949,-0.097551
466,1917661673799711,0.692612,9.928131,-0.727448,-9.957631,-0.087344,-0.643925,0.016525,0.013275,-0.005737,-0.013711,-0.005927,-0.016096,0.498955,0.498822,-0.534319,-0.465536,-0.000882,-0.097783
467,1917661678713041,0.708771,9.915558,-0.731049,-9.945356,-0.093057,-0.660479,0.015457,0.014343,-0.005737,-0.014771,-0.005782,-0.015031,0.498943,0.498869,-0.534326,-0.46549,-0.000815,-0.098016
468,1917661683656889,0.70697,9.941895,-0.707108,-9.969946,-0.067472,-0.66099,0.013321,0.013275,-0.005737,-0.013695,-0.00571,-0.0129,0.498938,0.498908,-0.534326,-0.465455,-0.000747,-0.098251
469,1917661688753324,0.664474,9.944901,-0.75499,-9.975999,-0.112416,-0.615876,0.0112,0.012207,-0.003616,-0.012474,-0.003529,-0.01093,0.498917,0.498959,-0.534328,-0.465419,-0.000679,-0.098487
470,1917661693727690,0.689621,9.916763,-0.743622,-9.947162,-0.105357,-0.643095,0.012253,0.014343,-0.005737,-0.014753,-0.005567,-0.011837,0.498912,0.499035,-0.534309,-0.465365,-0.000612,-0.098724
471,1917661698793608,0.688416,9.946091,-0.741821,-9.976299,-0.101726,-0.641968,0.010132,0.013275,-0.005737,-0.013679,-0.005496,-0.00972,0.498883,0.499062,-0.534327,-0.465347,-0.000544,-0.098963
472,1917661703706938,0.664474,9.935318,-0.743011,-9.965493,-0.102554,-0.618551,0.006927,0.012207,-0.006805,-0.012673,-0.006412,-0.006448,0.498867,0.499108,-0.534318,-0.465325,-0.000477,-0.099202
473,1917661708681303,0.657288,9.940704,-0.688553,-9.967058,-0.047994,-0.615912,0.007996,0.015411,-0.004684,-0.015728,-0.004156,-0.007665,0.498867,0.499148,-0.534296,-0.465308,-0.00041,-0.099441
474,1917661713625151,0.680634,9.938904,-0.686157,-9.965144,-0.047624,-0.640009,0.010132,0.013275,-0.004684,-0.013604,-0.004451,-0.009795,0.498867,0.499181,-0.534284,-0.465286,-0.000343,-0.09968
475,1917661718568998,0.66507,9.958054,-0.684952,-9.984051,-0.044457,-0.625223,0.009064,0.013275,-0.004684,-0.013599,-0.004378,-0.00873,0.498865,0.499216,-0.534266,-0.46527,-0.000275,-0.099922
476,1917661723512846,0.652512,9.964645,-0.668198,-9.989394,-0.026987,-0.614579,0.007996,0.014343,-0.004684,-0.01466,-0.004232,-0.007666,0.498868,0.499251,-0.53424,-0.46526,-0.000208,-0.100164
477,1917661728456694,0.697403,9.953278,-0.67717,-9.978779,-0.039875,-0.659545,0.007996,0.016479,-0.003616,-0.016717,-0.003023,-0.007744,0.498882,0.499278,-0.534224,-0.465234,-0.00014,-0.100405
478,1917661733370024,0.703384,9.94429,-0.694534,-9.970999,-0.05831,-0.664856,0.009064,0.011154,-0.004684,-0.011481,-0.004525,-0.00873,0.498884,0.499305,-0.534219,-0.46521,-7.3e-05,-0.100646
479,1917661738283354,0.675247,9.940704,-0.704712,-9.967981,-0.067117,-0.636549,0.010132,0.010086,-0.005737,-0.010491,-0.005721,-0.009721,0.498874,0.49934,-0.534212,-0.465191,-6e-06,-0.100889
480,1917661743196684,0.699783,9.953873,-0.707108,-9.981328,-0.070483,-0.661369,0.007996,0.010086,-0.005737,-0.010483,-0.005574,-0.007591,0.498871,0.499368,-0.534207,-0.465169,6.1e-05,-0.101132
481,1917661748110014,0.716553,9.94429,-0.681961,-9.970098,-0.047206,-0.679827,0.007996,0.00795,-0.004684,-0.00828,-0.004672,-0.007661,0.498866,0.499372,-0.534215,-0.46516,0.000127,-0.101377
482,1917661753023344,0.702789,9.949677,-0.695129,-9.976307,-0.059111,-0.665532,0.0112,0.006882,-0.004684,-0.007225,-0.004969,-0.010856,0.49886,0.499396,-0.534217,-0.465139,0.000191,-0.101622
483,1917661757936674,0.705185,9.96225,-0.667603,-9.986962,-0.03116,-0.670158,0.0112,0.005829,-0.005737,-0.006246,-0.006089,-0.010781,0.498858,0.499414,-0.534214,-0.465126,0.000255,-0.10187
484,1917661762819487,0.710571,9.953873,-0.671783,-9.97889,-0.036294,-0.675546,0.0112,0.005829,-0.004684,-0.006174,-0.005041,-0.010855,0.498858,0.49943,-0.534214,-0.465109,0.000318,-0.102118
485,1917661767702299,0.714157,9.96524,-0.69812,-9.992011,-0.062053,-0.677647,0.013321,0.006882,-0.005737,-0.007303,-0.006166,-0.012898,0.49885,0.499455,-0.534219,-0.465084,0.000374,-0.102338
486,1917661772585112,0.695007,9.953873,-0.685562,-9.979738,-0.049172,-0.659701,0.0112,0.005829,-0.004684,-0.006173,-0.005043,-0.010854,0.498844,0.499477,-0.534219,-0.465068,0.000429,-0.102561
487,1917661777467924,0.705185,9.945496,-0.69873,-9.972292,-0.063644,-0.669219,0.0112,0.005829,-0.004684,-0.006173,-0.005043,-0.010854,0.498837,0.499499,-0.534223,-0.465047,0.000482,-0.102783
488,1917661782411772,0.728516,9.98439,-0.710693,-10.011959,-0.074477,-0.69197,0.012253,0.004761,-0.005737,-0.005183,-0.006239,-0.011829,0.498828,0.49952,-0.534234,-0.46502,0.000534,-0.103009
489,1917661787508207,0.743484,9.979614,-0.663406,-10.003996,-0.028574,-0.710486,0.0112,0.004761,-0.004684,-0.005107,-0.005117,-0.010853,0.498835,0.499527,-0.534239,-0.465,0.000585,-0.103236
490,1917661792360502,0.717148,9.991577,-0.671188,-10.016371,-0.033758,-0.683783,0.012253,0.001556,-0.006805,-0.002058,-0.007522,-0.01175,0.498827,0.49954,-0.534243,-0.46499,0.000634,-0.103466
491,1917661797212797,0.704575,9.955063,-0.693939,-9.981435,-0.058213,-0.669789,0.0112,0.003693,-0.006805,-0.004186,-0.007302,-0.010702,0.498816,0.499561,-0.534245,-0.464976,0.000683,-0.103699
492,1917661802004057,0.677048,9.9431,-0.692734,-9.969342,-0.056254,-0.64236,0.009064,0.003693,-0.005737,-0.004106,-0.006091,-0.008646,0.498799,0.499578,-0.534247,-0.464975,0.00073,-0.103935
493,1917661807039457,0.694397,9.927536,-0.67717,-9.952804,-0.043063,-0.660713,0.007996,0.002625,-0.002548,-0.002819,-0.002916,-0.007802,0.498793,0.499583,-0.534252,-0.46497,0.000775,-0.104171
494,1917661812013822,0.70697,9.947891,-0.720871,-9.976143,-0.086126,-0.670197,0.010132,0.002625,-0.004684,-0.002972,-0.005191,-0.009783,0.498775,0.4996,-0.534267,-0.464954,0.00082,-0.104414
495,1917661816957670,0.70697,9.931732,-0.724457,-9.960259,-0.09084,-0.669885,0.007996,0.001556,-0.004684,-0.001899,-0.005115,-0.00765,0.498759,0.499614,-0.534281,-0.464939,0.000864,-0.104659
496,1917661821901518,0.702789,9.938904,-0.725052,-9.967449,-0.090799,-0.665646,0.006927,0.002625,-0.005737,-0.003034,-0.006016,-0.006511,0.498742,0.49963,-0.534292,-0.464928,0.000908,-0.104906
497,1917661826845365,0.684235,9.908981,-0.722061,-9.937335,-0.088795,-0.647261,0.007996,0.002625,-0.004684,-0.002965,-0.005043,-0.007651,0.498723,0.499648,-0.534301,-0.464919,0.00095,-0.105151
498,1917661831789213,0.660889,9.941299,-0.720276,-9.969383,-0.083602,-0.624094,0.006927,0.000488,-0.004684,-0.000829,-0.005115,-0.006581,0.4987,0.49967,-0.534304,-0.464917,0.000991,-0.105398
499,1917661836733061,0.648911,9.949677,-0.729248,-9.978312,-0.091703,-0.611466,0.005875,0.002625,-0.005737,-0.00303,-0.005943,-0.005461,0.498673,0.499696,-0.534303,-0.464919,0.001032,-0.105643
500,1917661841676908,0.730316,9.929932,-0.743011,-9.959825,-0.112311,-0.691655,0.003738,0.005829,-0.004684,-0.006147,-0.004526,-0.003408,0.498665,0.499703,-0.53432,-0.464901,0.001072,-0.105888
501,1917661846620756,0.700394,9.908386,-0.743011,-9.938241,-0.111769,-0.661738,0.003738,0.001556,-0.004684,-0.001884,-0.004818,-0.003401,0.49865,0.499717,-0.534332,-0.464889,0.001111,-0.106133
502,1917661851564604,0.690216,9.885635,-0.746002,-9.915697,-0.115686,-0.651305,0.001602,-0.002701,-0.003616,0.002443,-0.003896,-0.001339,0.498635,0.49973,-0.534341,-0.464879,0.00115,-0.106377
503,1917661856508451,0.681229,9.930527,-0.748398,-9.960615,-0.114584,-0.642187,0.004807,-0.003769,-0.003616,0.003498,-0.004195,-0.004534,0.498614,0.499749,-0.534352,-0.464868,0.001189,-0.106621
504,1917661861452299,0.657898,9.931122,-0.742416,-9.960733,-0.10743,-0.619292,0.001602,-0.006958,-0.004684,0.006617,-0.005249,-0.001256,0.498592,0.499771,-0.534352,-0.464869,0.001226,-0.106863
505,1917661866365629,0.669266,9.921555,-0.715485,-9.949372,-0.082343,-0.632494,0.000534,-0.002701,-0.003616,0.002446,-0.00382,-0.000273,0.498582,0.49978,-0.534348,-0.464873,0.001263,-0.107107
506,1917661871309477,0.678238,9.913773,-0.73584,-9.943037,-0.104002,-0.639965,-0.000519,-0.003769,-0.003616,0.003516,-0.003819,0.000779,0.49857,0.499792,-0.53435,-0.464872,0.001301,-0.10733
507,1917661876222807,0.675842,9.922745,-0.715485,-9.950594,-0.083192,-0.63901,-0.002655,-0.004837,-0.003616,0.004588,-0.003741,0.002911,0.498565,0.499797,-0.534344,-0.464879,0.001337,-0.107554
508,1917661881166655,0.681839,9.940704,-0.720276,-9.968864,-0.087233,-0.64467,-0.003723,-0.009094,-0.00148,0.008984,-0.00183,0.003832,0.498564,0.499798,-0.534342,-0.464882,0.001373,-0.107778
509,1917661886079985,0.696793,9.952667,-0.705902,-9.979852,-0.07324,-0.66063,-0.001587,-0.009094,-0.003616,0.008832,-0.004106,0.001853,0.498563,0.499799,-0.534338,-0.464885,0.001407,-0.108005
510,1917661890993315,0.699188,9.926331,-0.720276,-9.954575,-0.089484,-0.661956,-0.001587,-0.009094,-0.00148,0.008977,-0.001981,0.001702,0.498565,0.499797,-0.534338,-0.464886,0.00144,-0.108235
511,1917661895937162,0.680038,9.910172,-0.723267,-9.938591,-0.092103,-0.642628,-0.001587,-0.010162,-0.000412,0.010115,-0.000991,0.001628,0.498566,0.499796,-0.534342,-0.464881,0.001473,-0.108466
512,1917661900972563,0.693207,9.940704,-0.748398,-9.970819,-0.115993,-0.654022,-0.001587,-0.008026,-0.00148,0.007912,-0.001908,0.0017,0.498558,0.499804,-0.53435,-0.464873,0.001504,-0.1087
513,1917661905855375,0.70697,9.954468,-0.754395,-9.984985,-0.121904,-0.66733,0.000534,-0.01123,-0.00148,0.011101,-0.002276,-0.000411,0.498548,0.499812,-0.534363,-0.464858,0.001535,-0.108934
514,1917661910768705,0.696198,9.951477,-0.696335,-9.978082,-0.063524,-0.659876,-0.001587,-0.016556,-0.00148,0.016422,-0.00249,0.001712,0.498532,0.499788,-0.534381,-0.464882,0.001565,-0.109171
515,1917661915712553,0.687225,9.954468,-0.69812,-9.981177,-0.064446,-0.650107,-0.000519,-0.01442,-0.00148,0.014287,-0.00242,0.000643,0.498515,0.499769,-0.534395,-0.464902,0.001594,-0.109409
516,1917661920656401,0.717743,9.94429,-0.717285,-9.972454,-0.086205,-0.679193,-0.000519,-0.010162,-0.00148,0.010039,-0.002129,0.000637,0.498518,0.499767,-0.534402,-0.464895,0.001623,-0.109648
517,1917661925600248,0.708176,9.970032,-0.723862,-9.998602,-0.090144,-0.668568,0.001602,-0.013351,-0.000412,0.013286,-0.001434,-0.001551,0.4985,0.499752,-0.534428,-0.464901,0.001652,-0.109887
518,1917661930544096,0.691406,9.954468,-0.705902,-9.981832,-0.072132,-0.652377,0.001602,-0.01442,-0.00148,0.01428,-0.00257,-0.001475,0.498479,0.499737,-0.534448,-0.464916,0.00168,-0.110125
519,1917661935487944,0.682434,9.938309,-0.761566,-9.969525,-0.128037,-0.638738,0.000534,-0.01442,-0.000412,0.014356,-0.001432,-0.000486,0.498448,0.499732,-0.534477,-0.464922,0.001708,-0.110362
520,1917661940401274,0.702789,9.911972,-0.728058,-9.941091,-0.097779,-0.66073,0.001602,-0.013351,-0.000412,0.013286,-0.001435,-0.001554,0.498428,0.499719,-0.534504,-0.464927,0.001735,-0.110599
521,1917661945345121,0.701584,9.931732,-0.720871,-9.960342,-0.089096,-0.659456,0.001602,-0.012283,-0.00148,0.012147,-0.002425,-0.00148,0.498409,0.499707,-0.534526,-0.464934,0.001762,-0.110837
522,1917661950288969,0.684235,9.930527,-0.702911,-9.957891,-0.070098,-0.64267,0.00267,-0.015488,-0.00148,0.015341,-0.002719,-0.002543,0.498386,0.499692,-0.534546,-0.464951,0.001787,-0.111074
523,1917661955232817,0.68483,9.92334,-0.736435,-9.953048,-0.104038,-0.640107,0.001602,-0.015488,-0.00148,0.015345,-0.002643,-0.001479,0.498356,0.499683,-0.534572,-0.464962,0.001811,-0.11131
524,1917661960176664,0.66507,9.937714,-0.722672,-9.966443,-0.088156,-0.620651,0.00267,-0.01442,-0.000412,0.014348,-0.001583,-0.002622,0.498327,0.499677,-0.534593,-0.464978,0.001834,-0.111549
525,1917661965120512,0.670456,9.956863,-0.710693,-9.984779,-0.07542,-0.626178,0.003738,-0.01442,-0.000412,0.014343,-0.001659,-0.003688,0.4983,0.499668,-0.534612,-0.464993,0.001857,-0.111748
526,1917661970033842,0.690216,9.964645,-0.732834,-9.99419,-0.098261,-0.643558,0.004807,-0.015488,0.000641,0.015476,-0.00076,-0.004829,0.498272,0.499658,-0.534643,-0.464999,0.001879,-0.111948
527,1917661974977690,0.663284,9.910172,-0.737625,-9.940105,-0.105052,-0.615428,0.005875,-0.017609,-0.00148,0.017442,-0.003091,-0.005744,0.49823,0.499656,-0.534673,-0.465011,0.0019,-0.112149
528,1917661979921537,0.653702,9.891617,-0.738831,-9.921682,-0.107133,-0.604975,0.005875,-0.015488,-0.00148,0.015326,-0.002946,-0.005746,0.498189,0.499658,-0.534699,-0.465023,0.001919,-0.112349
529,1917661984865385,0.659683,9.915558,-0.731644,-9.945153,-0.099024,-0.610781,0.004807,-0.013351,-0.00148,0.013198,-0.002724,-0.004683,0.498155,0.499659,-0.534721,-0.465034,0.001935,-0.112548
530,1917661989778715,0.660294,9.88504,-0.737625,-9.915137,-0.10732,-0.610273,0.005875,-0.013351,-0.00148,0.013193,-0.0028,-0.005749,0.498118,0.499662,-0.534745,-0.465041,0.00195,-0.112749
531,1917661994692045,0.671066,9.875458,-0.734039,-9.905436,-0.105222,-0.620559,0.006927,-0.01442,0.000641,0.014399,-0.000838,-0.00695,0.498085,0.49966,-0.534776,-0.465044,0.001963,-0.112949
532,1917661999513822,0.64772,9.900604,-0.761566,-9.932327,-0.129532,-0.594582,0.005875,-0.01442,-0.000412,0.014332,-0.001811,-0.005826,0.498042,0.499667,-0.534804,-0.46505,0.001975,-0.113151
533,1917662004427153,0.657288,9.918564,-0.73703,-9.948659,-0.10479,-0.605246,0.004807,-0.012283,-0.000412,0.012204,-0.001589,-0.004762,0.498009,0.499669,-0.534826,-0.465058,0.001984,-0.113352
534,1917662009248930,0.68782,9.940704,-0.731644,-9.970568,-0.100025,-0.635547,0.005875,-0.01123,0.000641,0.01122,-0.000546,-0.005904,0.497987,0.499664,-0.534852,-0.465058,0.001993,-0.113553
535,1917662014375883,0.693802,9.945496,-0.763962,-9.977569,-0.132209,-0.639171,0.006927,-0.009094,0.000641,0.009084,-0.000476,-0.006953,0.497969,0.49968,-0.534874,-0.465034,0.001999,-0.113753
536,1917662019380766,0.670456,9.913773,-0.73703,-9.944012,-0.105983,-0.61728,0.007996,-0.010162,0.000641,0.010144,-0.000626,-0.00802,0.497939,0.499684,-0.5349,-0.465032,0.002004,-0.113954
537,1917662024355131,0.695007,9.940109,-0.71907,-9.969181,-0.087991,-0.643046,0.005875,-0.009094,-0.000412,0.009017,-0.00145,-0.005829,0.497932,0.49969,-0.534911,-0.46502,0.002007,-0.114154
538,1917662029329496,0.668671,9.96405,-0.720871,-9.993068,-0.086326,-0.616624,0.006927,-0.006958,0.001709,0.007025,0.000731,-0.007031,0.497921,0.4997,-0.53492,-0.465011,0.002008,-0.114353
539,1917662034273344,0.685425,9.949081,-0.719666,-9.97813,-0.08731,-0.633402,0.007996,-0.00589,0.000641,0.005882,-0.000336,-0.008021,0.497911,0.499709,-0.534932,-0.464998,0.002008,-0.114551
540,1917662039217192,0.675842,9.935913,-0.727448,-9.965485,-0.095377,-0.623248,0.009064,-0.00589,-0.000412,0.005805,-0.00146,-0.00901,0.497895,0.499724,-0.534944,-0.464986,0.002005,-0.114747
541,1917662044130522,0.668671,9.956268,-0.762177,-9.988112,-0.128267,-0.61355,0.009064,-0.004837,-0.00148,0.004682,-0.002452,-0.008934,0.497869,0.499748,-0.534959,-0.46497,0.002001,-0.114944
542,1917662049074369,0.667465,9.992783,-0.758575,-10.024286,-0.122468,-0.612547,0.007996,-0.004837,-0.003616,0.004542,-0.004501,-0.007715,0.497842,0.499773,-0.534969,-0.46496,0.001995,-0.115139
543,1917662054018217,0.662674,9.971222,-0.709503,-9.999446,-0.075129,-0.611093,0.0112,-0.003769,-0.003616,0.003461,-0.004659,-0.01091,0.497818,0.499789,-0.534977,-0.464961,0.001986,-0.115333
544,1917662058962065,0.643524,9.96225,-0.732834,-9.991978,-0.097932,-0.590272,0.0112,-0.003769,-0.000412,0.003679,-0.001471,-0.011141,0.497793,0.499813,-0.534985,-0.464952,0.001974,-0.115526
545,1917662063905912,0.648315,9.953873,-0.722672,-9.982957,-0.089044,-0.595603,0.013321,-0.002701,-0.000412,0.002603,-0.001552,-0.013256,0.497765,0.499833,-0.534998,-0.464945,0.001962,-0.115697
546,1917662068849760,0.683029,9.96106,-0.700516,-9.988794,-0.069068,-0.631705,0.013321,-0.002701,-0.00148,0.00253,-0.002615,-0.013179,0.497749,0.499843,-0.535011,-0.464936,0.001947,-0.115869
547,1917662073763090,0.661484,9.946091,-0.67897,-9.972314,-0.04729,-0.611646,0.016525,-0.002701,-0.000412,0.002587,-0.001784,-0.016452,0.497731,0.499856,-0.535021,-0.464931,0.00193,-0.116039
548,1917662078706938,0.64592,9.950287,-0.683762,-9.976762,-0.051028,-0.595532,0.018646,-0.004837,-0.00148,0.004635,-0.003146,-0.01849,0.497702,0.499874,-0.535032,-0.46493,0.001911,-0.116208
549,1917662083650785,0.669266,9.96524,-0.696335,-9.99265,-0.064506,-0.61777,0.019714,-0.002701,-0.003616,0.002354,-0.005205,-0.019401,0.497674,0.499896,-0.535046,-0.46492,0.00189,-0.116377
550,1917662088747221,0.64592,9.970032,-0.679565,-9.996177,-0.046188,-0.595678,0.021851,-0.000565,-0.00148,0.000358,-0.00309,-0.021686,0.497647,0.499923,-0.535055,-0.464909,0.001869,-0.116544
551,1917662093599516,0.641724,9.98439,-0.675385,-10.01022,-0.041133,-0.591601,0.021851,-0.003769,-0.000412,0.003626,-0.002246,-0.021763,0.497619,0.499943,-0.535066,-0.464906,0.001845,-0.116712
552,1917662098451811,0.655502,9.996964,-0.711288,-10.025251,-0.077216,-0.60258,0.02504,-0.002701,0.000641,0.002616,-0.001359,-0.02502,0.497584,0.49997,-0.53509,-0.464885,0.00182,-0.116881
553,1917662103517729,0.667465,9.958054,-0.733444,-9.987993,-0.102892,-0.612752,0.02504,-0.002701,0.000641,0.002616,-0.001362,-0.02502,0.497546,0.500001,-0.535123,-0.464854,0.001795,-0.117051
554,1917662108522612,0.664474,9.96405,-0.740021,-9.994431,-0.108991,-0.60908,0.023972,-0.003769,0.000641,0.003686,-0.00136,-0.023955,0.497507,0.500031,-0.535156,-0.464827,0.001768,-0.117221
555,1917662113313871,0.663879,9.970032,-0.77594,-10.00284,-0.144449,-0.605681,0.02504,-0.002701,0.000641,0.002615,-0.001369,-0.02502,0.497462,0.500068,-0.535195,-0.464791,0.00174,-0.117391
556,1917662118196684,0.66806,9.961655,-0.767563,-9.993936,-0.137073,-0.610238,0.026108,-0.003769,0.001709,0.003747,-0.000461,-0.026163,0.497417,0.500102,-0.535236,-0.464754,0.00171,-0.117563
557,1917662123140531,0.667465,9.950882,-0.760971,-9.982748,-0.13138,-0.609964,0.02504,-0.002701,-0.000412,0.002543,-0.002424,-0.024942,0.497374,0.500138,-0.535272,-0.46472,0.001679,-0.117736
558,1917662128053862,0.669861,9.983795,-0.792099,-10.01771,-0.160432,-0.609888,0.023972,-0.002701,0.000641,0.002619,-0.001303,-0.023954,0.497328,0.500176,-0.535313,-0.464681,0.001645,-0.11791
559,1917662132997709,0.671066,9.971832,-0.788513,-10.005548,-0.157839,-0.611173,0.023972,-0.002701,0.001709,0.002691,-0.000244,-0.024033,0.497284,0.500212,-0.535355,-0.464641,0.001609,-0.118085
560,1917662137941557,0.68483,9.950882,-0.793289,-9.985051,-0.165019,-0.624373,0.022919,-0.002701,0.000641,0.002623,-0.001233,-0.022904,0.497243,0.500245,-0.535398,-0.4646,0.001571,-0.118259
561,1917662142885405,0.640533,9.950882,-0.802872,-9.985481,-0.171653,-0.579328,0.021851,-0.001633,0.000641,0.001563,-0.001085,-0.021839,0.497193,0.500289,-0.535432,-0.464567,0.001532,-0.118434
562,1917662147798735,0.66806,9.92395,-0.814835,-9.959563,-0.187472,-0.605811,0.019714,-0.000565,0.001709,0.00058,0.000204,-0.019786,0.497152,0.500327,-0.535472,-0.464524,0.00149,-0.11861
563,1917662152742582,0.651306,9.943695,-0.81424,-9.979143,-0.184461,-0.589058,0.017578,-0.000565,0.002777,0.000663,0.001422,-0.017736,0.497112,0.500364,-0.535506,-0.464488,0.001446,-0.118786
564,1917662157686430,0.643524,9.925735,-0.847168,-9.963402,-0.218119,-0.578721,0.013321,-0.000565,0.001709,0.000612,0.000673,-0.013411,0.497067,0.500404,-0.535539,-0.464454,0.001393,-0.118944
565,1917662162630278,0.639938,9.96225,-0.829208,-9.998604,-0.197819,-0.576591,0.013321,0.003693,0.001709,-0.003636,0.00096,-0.013411,0.497032,0.500447,-0.535562,-0.46442,0.001339,-0.119103
566,1917662167543608,0.638733,9.940109,-0.809448,-9.975168,-0.179792,-0.576816,0.012253,0.000488,0.002777,-0.000361,0.001883,-0.012426,0.496999,0.500479,-0.535585,-0.464394,0.001283,-0.11926
567,1917662172517973,0.618988,9.935913,-0.808853,-9.970842,-0.178405,-0.55707,0.012253,-0.000565,0.002777,0.000689,0.001811,-0.012426,0.496961,0.500514,-0.535605,-0.464374,0.001225,-0.119418
568,1917662177461821,0.623779,9.946091,-0.772949,-9.978592,-0.142688,-0.564448,0.014389,-0.000565,0.002777,0.000679,0.00165,-0.014557,0.496929,0.500543,-0.535621,-0.464358,0.001165,-0.119577
569,1917662182405668,0.636337,9.961655,-0.750198,-9.992651,-0.120064,-0.578679,0.014389,0.000488,0.004913,-0.000228,0.003845,-0.014717,0.49691,0.500563,-0.535635,-0.464341,0.001104,-0.119735
570,1917662187196928,0.659088,9.943695,-0.700516,-9.971495,-0.073471,-0.605057,0.016525,-0.000565,0.004913,0.000812,0.003614,-0.016847,0.496902,0.500569,-0.535647,-0.464329,0.001042,-0.119893
571,1917662192262846,0.630951,9.979004,-0.706497,-10.006983,-0.07514,-0.576499,0.019714,-0.000565,0.003845,0.000724,0.002311,-0.019947,0.496881,0.500588,-0.535658,-0.464318,0.000979,-0.120051
572,1917662197054106,0.641129,9.96106,-0.740021,-9.991398,-0.110721,-0.583935,0.020782,-0.003769,0.001709,0.00377,-0.000112,-0.020852,0.496849,0.500611,-0.535678,-0.464304,0.000913,-0.12021
573,1917662202120024,0.662079,9.968231,-0.75499,-9.999688,-0.126585,-0.603479,0.02504,-0.003769,0.005981,0.004037,0.003815,-0.025419,0.496816,0.500633,-0.535718,-0.46427,0.000846,-0.120369
574,1917662206972319,0.637543,9.965836,-0.752594,-9.997011,-0.122612,-0.579087,0.02504,-0.001633,0.005981,0.001905,0.003957,-0.02542,0.496783,0.500661,-0.535747,-0.464241,0.000778,-0.120526
575,1917662211977201,0.655502,9.956268,-0.734039,-9.986329,-0.106261,-0.598229,0.027176,-0.002701,0.002777,0.002743,0.000533,-0.027308,0.496749,0.500688,-0.535778,-0.464214,0.000708,-0.120684
576,1917662216951567,0.656097,9.956268,-0.738831,-9.986661,-0.111113,-0.598316,0.028244,-0.002701,0.003845,0.00281,0.001512,-0.028454,0.496715,0.500715,-0.535811,-0.464183,0.000637,-0.120841
577,1917662221925932,0.660294,9.935913,-0.750793,-9.967186,-0.124605,-0.601501,0.028244,-0.001633,0.005981,0.001888,0.003705,-0.028616,0.496683,0.500742,-0.535849,-0.464144,0.000565,-0.120996
578,1917662226839262,0.659683,9.974228,-0.772949,-10.006903,-0.144045,-0.599241,0.029297,0.001556,0.003845,-0.001443,0.001712,-0.029504,0.496647,0.50078,-0.535885,-0.4641,0.000492,-0.12115
579,1917662231783110,0.66568,9.975418,-0.768158,-10.007789,-0.139594,-0.605626,0.030365,0.001556,0.004913,-0.001376,0.002688,-0.030651,0.496613,0.500816,-0.535923,-0.464053,0.000419,-0.121302
580,1917662236726957,0.667465,9.956268,-0.759781,-9.988133,-0.132767,-0.608101,0.027176,0.001556,0.001709,-0.001576,-0.00026,-0.027227,0.496583,0.50085,-0.535952,-0.464016,0.000344,-0.121455
581,1917662241670805,0.679443,9.956268,-0.783722,-9.989787,-0.157404,-0.618369,0.028244,0.003693,0.002777,-0.003641,0.000861,-0.028374,0.496552,0.500888,-0.535988,-0.463965,0.000269,-0.121607
582,1917662246584135,0.658493,9.98439,-0.75679,-10.015918,-0.127221,-0.59966,0.027176,0.002625,0.002777,-0.00257,0.000867,-0.027309,0.496524,0.500923,-0.536013,-0.463929,0.000193,-0.121757
583,1917662251527983,0.664474,9.968231,-0.751389,-9.999468,-0.123491,-0.606074,0.029297,0.001556,0.001709,-0.001586,-0.000434,-0.029342,0.496493,0.500957,-0.536042,-0.463893,0.000116,-0.121908
584,1917662256471830,0.644119,9.959854,-0.746613,-9.990655,-0.118002,-0.586317,0.030365,0.003693,0.001709,-0.003723,-0.000375,-0.030407,0.49646,0.500999,-0.536063,-0.463857,3.9e-05,-0.122058
585,1917662261415678,0.630951,9.973618,-0.75499,-10.004886,-0.124774,-0.572626,0.028244,0.002625,0.001709,-0.002646,-0.000288,-0.028292,0.496424,0.501041,-0.536083,-0.463828,-3.7e-05,-0.122192
586,1917662266359526,0.640533,9.964645,-0.753784,-9.995881,-0.125081,-0.58246,0.028244,0.004761,0.003845,-0.004633,0.001977,-0.028457,0.496396,0.501079,-0.536104,-0.463792,-0.000114,-0.122327
587,1917662271303373,0.657288,9.953278,-0.765167,-9.985396,-0.138559,-0.598403,0.028244,0.002625,0.002777,-0.002573,0.000767,-0.028375,0.496366,0.501116,-0.536132,-0.463753,-0.00019,-0.122462
588,1917662276247221,0.676453,9.948486,-0.760971,-9.980413,-0.136165,-0.618108,0.027176,0.005829,0.001709,-0.005836,-0.0,-0.027228,0.496345,0.501151,-0.536156,-0.46371,-0.000268,-0.122597
589,1917662281160551,0.692017,9.971832,-0.751999,-10.003155,-0.126708,-0.634654,0.02504,0.006882,0.001709,-0.006875,0.000233,-0.025099,0.496333,0.501179,-0.536177,-0.463668,-0.000345,-0.122731
590,1917662286073881,0.661484,9.985596,-0.748398,-10.01645,-0.119877,-0.605002,0.02504,0.010086,0.002777,-0.009998,0.00151,-0.025183,0.496322,0.501215,-0.536187,-0.463628,-0.000425,-0.122867
591,1917662290987211,0.663284,9.933517,-0.742416,-9.96407,-0.117679,-0.607821,0.027176,0.012207,0.001709,-0.012195,0.000423,-0.027232,0.496311,0.501256,-0.536197,-0.463585,-0.000505,-0.123003
592,1917662295931059,0.675247,9.942505,-0.720871,-9.971598,-0.096587,-0.622194,0.027176,0.015411,0.000641,-0.015462,-0.000425,-0.027151,0.496311,0.501295,-0.536199,-0.463541,-0.000586,-0.123139
593,1917662301088530,0.673447,9.950882,-0.739426,-9.981138,-0.11438,-0.619937,0.026108,0.0186,0.000641,-0.018636,-0.000129,-0.02609,0.496312,0.501343,-0.536199,-0.463488,-0.000669,-0.123276
594,1917662305971342,0.691406,9.926331,-0.748398,-9.957265,-0.126282,-0.638076,0.02504,0.019669,-0.000412,-0.019766,-0.001023,-0.024946,0.496316,0.501386,-0.536201,-0.463434,-0.000754,-0.123411
595,1917662310854155,0.656097,9.92514,-0.785507,-9.958363,-0.160729,-0.600957,0.023972,0.020737,0.000641,-0.020753,0.000176,-0.023966,0.496309,0.501443,-0.536202,-0.463379,-0.00084,-0.123548
596,1917662315736967,0.656097,9.908386,-0.819031,-9.943844,-0.195408,-0.599396,0.021851,0.022873,0.000641,-0.022872,0.000482,-0.021856,0.4963,0.501507,-0.536205,-0.463316,-0.000929,-0.123683
597,1917662320650297,0.650116,9.909576,-0.801071,-9.943738,-0.177126,-0.595751,0.019714,0.019669,0.002777,-0.01952,0.002554,-0.019891,0.496295,0.501559,-0.536207,-0.463263,-0.001019,-0.123817
598,1917662325563627,0.651306,9.933517,-0.75798,-9.964671,-0.132766,-0.601009,0.016525,0.014343,0.003845,-0.01412,0.003504,-0.016791,0.496298,0.50159,-0.536204,-0.463229,-0.001111,-0.12395
599,1917662330507475,0.662079,9.947891,-0.75499,-9.978829,-0.129554,-0.612502,0.014389,0.010086,0.004913,-0.009791,0.004445,-0.014741,0.496303,0.50161,-0.536206,-0.4632,-0.001205,-0.124083
600,1917662335451322,0.66568,9.938904,-0.75679,-9.969975,-0.131952,-0.616379,0.014389,0.009018,0.008102,-0.008509,0.007544,-0.01499,0.49631,0.501624,-0.536214,-0.463168,-0.001301,-0.124215
601,1917662340395170,0.685425,9.988586,-0.713684,-10.01668,-0.086805,-0.640033,0.014389,0.010086,0.008102,-0.009573,0.007616,-0.014992,0.496332,0.501627,-0.536215,-0.46314,-0.001398,-0.124346
602,1917662345339018,0.690216,9.978409,-0.709503,-10.006229,-0.083286,-0.645602,0.017578,0.009018,0.007034,-0.008592,0.006232,-0.018087,0.496349,0.501632,-0.536219,-0.463111,-0.001496,-0.124475
603,1917662350282865,0.677048,10.005341,-0.731049,-10.034479,-0.101457,-0.631179,0.019714,0.006882,0.009171,-0.006323,0.008045,-0.020381,0.496356,0.501641,-0.536232,-0.463078,-0.001595,-0.124602
604,1917662355196196,0.690811,10.030487,-0.708298,-10.058079,-0.077782,-0.647094,0.020782,0.006882,0.008102,-0.006399,0.006898,-0.021363,0.496369,0.501646,-0.536242,-0.463049,-0.001695,-0.124729
605,1917662360140043,0.698593,10.020905,-0.691544,-10.047373,-0.061867,-0.656645,0.027176,0.009018,0.008102,-0.008553,0.006541,-0.027741,0.496381,0.501656,-0.536255,-0.463009,-0.001795,-0.124853
606,1917662365083891,0.702179,9.992783,-0.671783,-10.017957,-0.043971,-0.66219,0.030365,0.00795,0.005981,-0.007643,0.004108,-0.030753,0.496391,0.501667,-0.536267,-0.462972,-0.001894,-0.124956
607,1917662370027738,0.733902,9.990387,-0.686157,-10.016653,-0.060209,-0.693183,0.033569,0.009018,0.007034,-0.008647,0.004974,-0.034032,0.496403,0.501678,-0.536293,-0.462919,-0.001994,-0.125058
608,1917662374941069,0.720734,9.995773,-0.667603,-10.020672,-0.039798,-0.682038,0.036758,0.009018,0.005981,-0.008728,0.003674,-0.037129,0.496411,0.501693,-0.536313,-0.46287,-0.002094,-0.125159
609,1917662379884916,0.709366,9.977814,-0.661606,-10.002263,-0.033761,-0.671766,0.04422,0.011154,0.004913,-0.010957,0.002167,-0.044488,0.496411,0.501722,-0.536335,-0.462813,-0.002197,-0.125259
610,1917662384828764,0.738693,9.96106,-0.715485,-9.989274,-0.090198,-0.697424,0.047409,0.013275,0.004913,-0.013082,0.002053,-0.047672,0.496403,0.501762,-0.536375,-0.462731,-0.002299,-0.125358
611,1917662389650541,0.732117,9.969437,-0.715485,-9.997564,-0.088643,-0.691675,0.048477,0.015411,0.003845,-0.015285,0.001045,-0.048658,0.496396,0.501807,-0.536409,-0.462651,-0.002401,-0.125454
612,1917662394869047,0.739899,9.940109,-0.744812,-9.970285,-0.119854,-0.697893,0.050613,0.015411,0.004913,-0.015216,0.001928,-0.050873,0.49638,0.501863,-0.536458,-0.462551,-0.002505,-0.125549
613,1917662399934965,0.732117,9.955673,-0.766953,-9.987242,-0.139708,-0.689261,0.051666,0.016479,0.004913,-0.01628,0.001906,-0.051927,0.496359,0.501925,-0.536507,-0.462449,-0.002609,-0.125642
614,1917662405061918,0.732712,9.925735,-0.751389,-9.95625,-0.125821,-0.692058,0.051666,0.019669,0.004913,-0.019457,0.002114,-0.051936,0.496346,0.501988,-0.53655,-0.462345,-0.002714,-0.125734
615,1917662410097319,0.713562,9.921555,-0.790298,-9.954617,-0.163015,-0.670857,0.053802,0.020737,0.003845,-0.020597,0.000942,-0.053985,0.496318,0.502066,-0.536596,-0.462237,-0.002818,-0.125823
616,1917662415071684,0.709961,9.911377,-0.784912,-9.944034,-0.157827,-0.668645,0.051666,0.019669,0.003845,-0.019519,0.001027,-0.051855,0.496294,0.502139,-0.536638,-0.462136,-0.002924,-0.125911
617,1917662419985014,0.712357,9.908981,-0.802872,-9.942808,-0.175668,-0.670566,0.049545,0.020737,0.005981,-0.020426,0.003384,-0.049918,0.496272,0.502209,-0.536682,-0.462031,-0.00303,-0.125998
618,1917662424898344,0.70697,9.903,-0.839386,-9.939284,-0.211704,-0.663163,0.046341,0.019669,0.004913,-0.01942,0.002495,-0.046638,0.496244,0.502284,-0.536728,-0.461927,-0.003137,-0.126082
619,1917662429811674,0.683029,9.903595,-0.832794,-9.939305,-0.203046,-0.640675,0.046341,0.0186,0.005981,-0.018276,0.003473,-0.046724,0.496212,0.502359,-0.536771,-0.46183,-0.003244,-0.126164
620,1917662434725004,0.663284,9.916763,-0.845963,-9.95323,-0.213627,-0.62069,0.04422,0.016479,0.007034,-0.016078,0.004535,-0.044692,0.496174,0.502434,-0.536812,-0.46174,-0.003353,-0.126245
621,1917662439638334,0.661484,9.919159,-0.857941,-9.956394,-0.225226,-0.618639,0.04422,0.016479,0.007034,-0.016074,0.004524,-0.044694,0.496134,0.502511,-0.536856,-0.461648,-0.003461,-0.126325
622,1917662444521147,0.680038,9.915558,-0.828613,-9.950809,-0.197701,-0.640166,0.04422,0.014343,0.007034,-0.01394,0.004367,-0.04469,0.496103,0.502576,-0.536898,-0.461563,-0.003571,-0.126403
623,1917662449403959,0.686615,9.949677,-0.831604,-9.985029,-0.198655,-0.647165,0.038895,0.013275,0.007034,-0.012858,0.004721,-0.039381,0.496077,0.502631,-0.536937,-0.461485,-0.00368,-0.126481
624,1917662454317289,0.661484,9.919754,-0.843567,-9.955898,-0.210541,-0.62159,0.03569,0.012207,0.007034,-0.011782,0.004903,-0.036186,0.496046,0.50269,-0.536971,-0.461414,-0.00379,-0.126558
625,1917662459230619,0.668671,9.929932,-0.831604,-9.965214,-0.198453,-0.630297,0.034622,0.012207,0.007034,-0.011778,0.004985,-0.035123,0.496021,0.502742,-0.537003,-0.461347,-0.003891,-0.126625
626,1917662464143949,0.666275,9.912567,-0.840576,-9.948466,-0.208198,-0.627713,0.030365,0.013275,0.009171,-0.012683,0.007529,-0.031061,0.496003,0.50279,-0.537032,-0.46128,-0.003992,-0.126692
