,time,acce_x,acce_y,acce_z,acce_glob_x,acce_glob_y,acce_glob_z,gyro_x,gyro_y,gyro_z,gyro_glob_x,gyro_glob_y,gyro_glob_z,ori_w,ori_x,ori_y,ori_z,pos_x,pos_y
0,97839180438543,0.184433,8.049881,5.410675,-5.609054,1.047469,7.845463,0.156693,-0.000336,0.063477,-0.112512,0.116345,-0.048857,0.333577,0.162317,-0.421936,-0.827254,0.014528,0.000229
1,97839185382391,0.194016,8.034912,5.383148,-5.605599,1.042956,7.814428,0.137512,-0.002457,0.060287,-0.097158,0.106708,-0.041519,0.333641,0.162367,-0.422265,-0.827051,0.014547,0.00036
2,97839190326238,0.17247,8.013367,5.386139,-5.574671,1.052031,7.814771,0.116211,-0.002457,0.059219,-0.081709,0.097017,-0.030487,0.33371,0.162402,-0.42255,-0.826871,0.014564,0.000492
3,97839195270086,0.13176,7.989426,5.426849,-5.527729,1.083713,7.846582,0.097031,-0.002457,0.057098,-0.067816,0.08736,-0.021223,0.333782,0.162424,-0.42279,-0.826715,0.014579,0.000624
4,97839200213934,0.106628,7.970276,5.477722,-5.49525,1.127453,7.878654,0.084259,-0.002457,0.054962,-0.058572,0.08035,-0.015483,0.333854,0.162439,-0.423,-0.826575,0.014592,0.000762
5,97839205127264,0.082687,7.942139,5.51123,-5.457548,1.160961,7.894644,0.074661,-0.005661,0.054962,-0.049391,0.077723,-0.012118,0.333926,0.162439,-0.423189,-0.826449,0.014602,0.000902
6,97839210101629,0.048569,7.930176,5.567505,-5.423044,1.201617,7.939386,0.067215,-0.012054,0.057098,-0.039539,0.079047,-0.01056,0.334,0.162418,-0.423367,-0.826332,0.014616,0.001186
7,97839215045477,0.090469,7.926575,5.566299,-5.449953,1.22373,7.91346,0.062943,-0.016312,0.060287,-0.033441,0.081642,-0.008869,0.334077,0.16238,-0.42354,-0.826219,0.014616,0.001186
8,97839219989324,0.079086,7.910416,5.544754,-5.42978,1.212634,7.897607,0.06189,-0.019501,0.064545,-0.030391,0.085988,-0.007694,0.334161,0.16233,-0.423716,-0.826105,0.01462,0.001333
9,97839224933172,0.086868,7.868515,5.540573,-5.405429,1.234358,7.866176,0.064011,-0.020569,0.066681,-0.03113,0.089048,-0.008266,0.334247,0.162278,-0.423897,-0.825988,0.014623,0.001482
10,97839229877020,0.101837,7.84996,5.540573,-5.402316,1.252762,7.847021,0.065079,-0.019501,0.068802,-0.032577,0.090769,-0.007003,0.334338,0.162225,-0.424079,-0.825868,0.014626,0.001779
11,97839234820867,0.125183,7.837997,5.535187,-5.410062,1.26773,7.823822,0.068268,-0.014175,0.070938,-0.038495,0.091611,-0.004384,0.334438,0.162182,-0.424265,-0.82574,0.014626,0.001779
12,97839239734197,0.184433,7.850571,5.509445,-5.461311,1.271019,7.783189,0.070404,-0.006714,0.072006,-0.045139,0.090271,-0.000548,0.334549,0.162153,-0.42445,-0.825606,0.014552,0.001814
13,97839244678045,0.179657,7.84877,5.457367,-5.456974,1.232672,7.753729,0.073608,-0.000336,0.075195,-0.051772,0.091549,0.003299,0.334671,0.162137,-0.424641,-0.825462,0.014476,0.001847
14,97839249621893,0.229324,7.816452,5.475922,-5.46999,1.286755,7.717429,0.073608,0.006058,0.075195,-0.056152,0.088918,0.007053,0.334801,0.162131,-0.424826,-0.825315,0.014399,0.001877
15,97839254565740,0.253876,7.78772,5.415466,-5.468989,1.264963,7.650518,0.073608,0.015656,0.076263,-0.062728,0.08583,0.01333,0.334944,0.162143,-0.425005,-0.825163,0.014319,0.001905
16,97839259509588,0.265839,7.774551,5.372375,-5.469698,1.245484,7.609728,0.07254,0.025238,0.075195,-0.068563,0.080585,0.018935,0.335096,0.162174,-0.425174,-0.825008,0.014235,0.001931
17,97839264453436,0.307144,7.79071,5.359207,-5.511564,1.250118,7.587518,0.067215,0.031631,0.074142,-0.069124,0.074911,0.025013,0.335255,0.162213,-0.425329,-0.824855,0.014146,0.001956
18,97839269397283,0.343048,7.775742,5.313721,-5.528919,1.238982,7.530705,0.064011,0.040146,0.070938,-0.07273,0.067502,0.02992,0.335418,0.16227,-0.425471,-0.824705,0.014054,0.001983
19,97839274310613,0.359818,7.79071,5.295761,-5.552989,1.229462,7.518142,0.055496,0.049744,0.067749,-0.07326,0.057455,0.038419,0.335587,0.162341,-0.425587,-0.824562,0.01396,0.00201
20,97839279254461,0.407104,7.812256,5.284988,-5.603958,1.235163,7.496543,0.041641,0.061462,0.062424,-0.071456,0.042587,0.049887,0.335765,0.162429,-0.425666,-0.824431,0.013866,0.002041
21,97839284198309,0.419662,7.805069,5.25087,-5.61064,1.218651,7.463405,0.025665,0.067841,0.058151,-0.064425,0.029887,0.05999,0.335948,0.16252,-0.425706,-0.824318,0.013772,0.002075
22,97839289142156,0.344254,7.797897,5.272415,-5.553017,1.209811,7.511618,0.007553,0.068909,0.051758,-0.052231,0.016756,0.0669,0.336125,0.162609,-0.425703,-0.82423,0.013678,0.002113
23,97839294055486,0.367599,7.80986,5.319107,-5.5793,1.25361,7.53139,-0.01268,0.06572,0.046432,-0.035549,0.005346,0.0731,0.336295,0.162678,-0.425659,-0.82417,0.013585,0.002156
24,97839298999334,0.332275,7.838593,5.344238,-5.575145,1.247823,7.581263,-0.029724,0.059326,0.041107,-0.018951,-0.003434,0.075644,0.336454,0.162728,-0.425582,-0.824135,0.013496,0.002203
25,97839303943182,0.310135,7.835007,5.372375,-5.557796,1.262584,7.606751,-0.045715,0.051865,0.040054,-0.002296,-0.007888,0.079477,0.33661,0.162751,-0.425476,-0.824121,0.013401,0.002258
26,97839308887029,0.288589,7.835602,5.437622,-5.542718,1.305235,7.656524,-0.059555,0.040146,0.035782,0.015704,-0.012317,0.077721,0.33675,0.162744,-0.425348,-0.824132,0.013309,0.002315
27,97839313830877,0.287384,7.84996,5.511841,-5.55125,1.357428,7.708822,-0.07341,0.029495,0.037918,0.033095,-0.012011,0.080357,0.33689,0.1627,-0.425198,-0.824161,0.013232,0.002365
28,97839318774725,0.280807,7.840988,5.596832,-5.539151,1.425269,7.756995,-0.081924,0.019913,0.037918,0.045863,-0.011659,0.079414,0.337023,0.162628,-0.425035,-0.824205,0.013149,0.002418
29,97839323688055,0.259857,7.833206,5.670456,-5.517628,1.477221,7.807319,-0.086182,0.017776,0.040054,0.050441,-0.010871,0.081763,0.337159,0.162546,-0.424863,-0.824253,0.013047,0.002483
30,97839328631902,0.25267,7.84996,5.720139,-5.523449,1.50538,7.850545,-0.086182,0.016708,0.042175,0.051214,-0.008759,0.082375,0.337299,0.16246,-0.424691,-0.824302,0.01294,0.00255
31,97839333575750,0.271225,7.871521,5.777588,-5.550967,1.548653,7.886911,-0.082993,0.016708,0.041107,0.048891,-0.008335,0.079981,0.337436,0.162376,-0.424523,-0.824349,0.012774,0.00252
32,97839338519598,0.293976,7.890076,5.830856,-5.579595,1.59181,7.916622,-0.075531,0.019913,0.041107,0.041288,-0.006571,0.077739,0.337575,0.162303,-0.424367,-0.824387,0.012603,0.002488
33,97839343463445,0.310135,7.82901,5.837448,-5.549266,1.627411,7.875436,-0.068085,0.025238,0.037918,0.032163,-0.008259,0.074884,0.337711,0.162248,-0.424218,-0.824418,0.012429,0.002456
34,97839348407293,0.302353,7.868515,5.850616,-5.571806,1.617163,7.910397,-0.059555,0.033752,0.03685,0.020081,-0.009082,0.074553,0.337849,0.162221,-0.42408,-0.824438,0.012252,0.002422
35,97839353320623,0.331085,7.897858,5.851212,-5.614086,1.616637,7.911451,-0.049973,0.042282,0.035782,0.007229,-0.009462,0.073645,0.33799,0.162218,-0.423957,-0.824445,0.01207,0.002387
36,97839358233953,0.33168,7.897858,5.853012,-5.616145,1.617672,7.911126,-0.041443,0.052933,0.033661,-0.006365,-0.012,0.073946,0.338134,0.162246,-0.423841,-0.824439,0.011886,0.002351
37,97839363147283,0.335266,7.903839,5.796753,-5.62598,1.570753,7.878228,-0.036118,0.061462,0.032593,-0.016165,-0.014152,0.075384,0.338283,0.162298,-0.42373,-0.824425,0.011698,0.002315
38,97839368121649,0.346649,7.955917,5.786575,-5.672911,1.545563,7.894968,-0.03186,0.068909,0.030457,-0.024471,-0.017166,0.076142,0.338435,0.162372,-0.423623,-0.824403,0.011507,0.002277
39,97839373065496,0.374176,8.000809,5.78537,-5.726471,1.537241,7.903656,-0.035049,0.074234,0.028336,-0.025957,-0.022424,0.079784,0.338589,0.162455,-0.423506,-0.824383,0.011313,0.00224
40,97839377978826,0.363403,8.008575,5.757248,-5.727189,1.506026,7.89598,-0.043579,0.073181,0.028336,-0.019133,-0.025593,0.083883,0.338744,0.16253,-0.423375,-0.824373,0.011114,0.002202
41,97839382922674,0.381363,7.992416,5.774002,-5.730618,1.532432,7.885107,-0.056366,0.062515,0.024063,-0.00264,-0.030056,0.082182,0.338885,0.162576,-0.423224,-0.824383,0.010913,0.002165
42,97839387866522,0.401718,8.02774,5.821289,-5.770453,1.562759,7.921686,-0.069138,0.047607,0.02301,0.016863,-0.030171,0.079883,0.339015,0.16258,-0.423059,-0.824414,0.010709,0.002128
43,97839392810369,0.390335,8.039703,5.84343,-5.770941,1.568421,7.948025,-0.079803,0.026306,0.01767,0.039238,-0.030231,0.070137,0.339115,0.162538,-0.422886,-0.824469,0.010504,0.002091
44,97839397723699,0.378967,8.022354,5.86618,-5.750208,1.58609,7.95822,-0.092575,0.005005,0.015549,0.063194,-0.028582,0.063455,0.339194,0.162445,-0.422705,-0.824548,0.010085,0.002018
45,97839402698065,0.371185,8.012772,5.897308,-5.73653,1.608377,7.976582,-0.0979,-0.015244,0.011292,0.081042,-0.025944,0.051994,0.339245,0.162309,-0.422523,-0.824647,0.010085,0.002018
46,97839407611395,0.32869,8.019958,5.928421,-5.709067,1.608663,8.0245,-0.105362,-0.031219,0.007019,0.097447,-0.025978,0.044206,0.339273,0.162142,-0.422339,-0.824762,0.009657,0.001943
47,97839412555242,0.350235,8.031326,5.991272,-5.729448,1.659761,8.058461,-0.104294,-0.040802,0.004898,0.103324,-0.023302,0.036705,0.339287,0.161956,-0.422162,-0.824884,0.009441,0.001906
48,97839417499090,0.341858,8.054077,6.04454,-5.736198,1.685834,8.110207,-0.098969,-0.048264,0.001694,0.104646,-0.020566,0.02745,0.339285,0.161763,-0.421999,-0.825006,0.009441,0.001906
49,97839422442938,0.354431,8.054672,6.0625,-5.743137,1.701768,8.116505,-0.089386,-0.0504,0.000626,0.099242,-0.016497,0.02023,0.339274,0.161574,-0.421856,-0.825121,0.009224,0.001867
50,97839427386785,0.372391,8.060059,6.075073,-5.757605,1.714114,8.119207,-0.076599,-0.045074,-0.002563,0.086299,-0.015861,0.01437,0.339258,0.161409,-0.421734,-0.825222,0.009004,0.001828
51,97839432300115,0.38855,8.077423,6.076263,-5.779717,1.711995,8.122845,-0.062759,-0.036545,-0.007889,0.070326,-0.01782,0.008552,0.339235,0.161278,-0.421632,-0.825309,0.008558,0.001749
52,97839437243963,0.384949,8.119919,6.055923,-5.806074,1.674116,8.138938,-0.052094,-0.024826,-0.011093,0.054453,-0.020734,0.007624,0.339213,0.161185,-0.421543,-0.825382,0.008558,0.001749
53,97839442187811,0.361008,8.150436,6.089432,-5.809095,1.676236,8.190594,-0.040375,-0.00885,-0.01535,0.03484,-0.025813,0.007995,0.339193,0.161139,-0.421462,-0.825441,0.008293,0.001651
54,97839447131658,0.352631,8.179764,6.110382,-5.823255,1.675731,8.225038,-0.028671,0.003937,-0.017471,0.0175,-0.027859,0.007772,0.339177,0.161132,-0.421392,-0.825484,0.008025,0.001554
55,97839452075506,0.346054,8.18576,6.074478,-5.824096,1.640367,8.210653,-0.015884,0.015656,-0.020676,0.000104,-0.029876,0.005685,0.339162,0.161163,-0.42134,-0.825511,0.007752,0.001456
56,97839456988836,0.320312,8.207901,6.005035,-5.823552,1.563525,8.195998,-0.006287,0.026306,-0.023865,-0.014257,-0.032793,0.004739,0.339146,0.161231,-0.4213,-0.825525,0.007475,0.001357
57,97839461932684,0.299957,8.22287,6.00145,-5.820997,1.545118,8.212892,-0.000961,0.035889,-0.026001,-0.024787,-0.036233,0.006146,0.339133,0.161326,-0.421262,-0.825531,0.007194,0.001256
58,97839466876531,0.250885,8.230042,5.980499,-5.792985,1.50394,8.230573,0.003296,0.041214,-0.027069,-0.031566,-0.037502,0.006278,0.33912,0.161439,-0.421228,-0.825531,0.006909,0.001155
59,97839471820379,0.223343,8.201309,5.976913,-5.755346,1.500817,8.225469,0.004364,0.046539,-0.026001,-0.036015,-0.038404,0.009435,0.339114,0.161564,-0.421191,-0.825528,0.006621,0.001054
60,97839476733709,0.179657,8.24321,5.995468,-5.754922,1.479404,8.283758,0.004364,0.047607,-0.023865,-0.036716,-0.037132,0.01132,0.339112,0.161691,-0.421154,-0.825523,0.006326,0.000954
61,97839481708074,0.161697,8.240814,5.992477,-5.742329,1.470001,8.289253,0.003296,0.042282,-0.019608,-0.032163,-0.031949,0.011309,0.339113,0.161804,-0.42112,-0.825518,0.006028,0.000854
62,97839486651922,0.118591,8.227051,5.987686,-5.703509,1.453274,8.301129,0.003296,0.034821,-0.017471,-0.026928,-0.027133,0.008204,0.33911,0.161901,-0.421092,-0.825514,0.005726,0.000755
63,97839491595770,0.144333,8.2061,6.007431,-5.708216,1.488522,8.28557,0.004364,0.025238,-0.01535,-0.020982,-0.020994,0.003258,0.339102,0.161975,-0.421074,-0.825512,0.005422,0.000659
64,97839496539617,0.161102,8.211487,5.996063,-5.724734,1.48413,8.272365,0.005432,0.01033,-0.012146,-0.01131,-0.01177,-0.004159,0.339085,0.162015,-0.421073,-0.825512,0.005123,0.000568
65,97839501483465,0.171265,8.207306,6.00444,-5.72886,1.496921,8.269338,0.006485,-0.004593,-0.010025,-0.001637,-0.003418,-0.012219,0.339056,0.162023,-0.421088,-0.825515,0.004806,0.000476
66,97839506427313,0.168869,8.183365,5.993073,-5.709996,1.496745,8.250369,0.006485,-0.018433,-0.008957,0.008017,0.003192,-0.019688,0.339016,0.162001,-0.421114,-0.825522,0.004501,0.000393
67,97839511340643,0.150314,8.196533,5.973312,-5.704944,1.467453,8.25751,0.004364,-0.033356,-0.008957,0.019923,0.008494,-0.027255,0.33896,0.161949,-0.421149,-0.825538,0.004181,0.000311
68,97839516284490,0.169479,8.213882,5.953568,-5.729297,1.45257,8.246622,0.004364,-0.046143,-0.0047,0.028893,0.017234,-0.032226,0.338899,0.161866,-0.421198,-0.825554,0.003853,0.000233
69,97839521228338,0.181442,8.218079,5.960144,-5.738538,1.461372,8.247828,0.005432,-0.053589,-0.003632,0.033317,0.021639,-0.036554,0.338833,0.161767,-0.421256,-0.825571,0.00354,0.000164
70,97839526172186,0.198212,8.252197,5.936813,-5.772441,1.435786,8.246291,0.005432,-0.056793,-0.002563,0.035555,0.02383,-0.037808,0.338766,0.16166,-0.42132,-0.825587,0.003222,0.0001
71,97839531116033,0.228134,8.228256,5.930222,-5.775219,1.4535,8.213276,0.005432,-0.052521,0.001694,0.032654,0.025481,-0.032791,0.338712,0.161556,-0.421382,-0.825597,0.002903,4.1e-05
72,97839536029363,0.246689,8.218674,5.940994,-5.779643,1.474579,8.205136,0.009689,-0.049332,0.002762,0.027391,0.026815,-0.032647,0.338664,0.16146,-0.421449,-0.825602,0.002642,-0.000126
73,97839540973211,0.247284,8.216278,5.949371,-5.776465,1.483324,8.209478,0.012878,-0.04187,0.00383,0.019926,0.025922,-0.029404,0.338623,0.16138,-0.421517,-0.825599,0.002377,-0.000292
74,97839545917059,0.236511,8.194733,5.900299,-5.75299,1.449828,8.174607,0.016083,-0.035477,0.00383,0.013175,0.024618,-0.027429,0.338588,0.161316,-0.421623,-0.825572,0.002111,-0.000455
75,97839550860906,0.233521,8.178574,5.890121,-5.738495,1.448836,8.161354,0.02034,-0.026962,0.00383,0.004194,0.022879,-0.024785,0.338559,0.161275,-0.421729,-0.825538,0.001843,-0.000615
76,97839555804754,0.244888,8.158813,5.888916,-5.732043,1.462609,8.143093,0.024597,-0.016312,-0.001495,-0.006373,0.015965,-0.024038,0.338532,0.161258,-0.421829,-0.825501,0.001572,-0.000775
77,97839560748602,0.246094,8.131287,5.879349,-5.71355,1.468479,8.120596,0.025665,-0.004593,-0.003632,-0.015327,0.009829,-0.019012,0.338513,0.161267,-0.421918,-0.825462,0.001299,-0.000933
78,97839565661932,0.235321,8.110336,5.895508,-5.691045,1.487162,8.123438,0.029922,0.007126,-0.005753,-0.026572,0.005056,-0.015735,0.3385,0.161305,-0.421993,-0.825421,0.001022,-0.001092
79,97839570605779,0.222748,8.093582,5.909271,-5.670713,1.501111,8.128032,0.032059,0.016708,-0.012146,-0.03489,-0.00317,-0.015071,0.338483,0.161372,-0.422053,-0.825385,0.000743,-0.001251
80,97839575549627,0.161697,8.058258,5.927826,-5.603215,1.505872,8.150902,0.038452,0.025238,-0.014282,-0.045452,-0.005734,-0.014858,0.338461,0.16148,-0.422096,-0.825351,0.000462,-0.00141
81,97839580493475,0.135956,8.073822,5.941589,-5.596923,1.50084,8.18105,0.046967,0.031631,-0.014282,-0.056012,-0.004797,-0.015815,0.338438,0.161615,-0.422147,-0.825308,0.000177,-0.001571
82,97839585437322,0.100647,8.097168,5.92543,-5.590068,1.464593,8.203118,0.052292,0.034821,-0.017471,-0.062111,-0.006456,-0.018781,0.338402,0.16178,-0.422208,-0.825259,-0.000111,-0.001732
83,97839590350652,0.05455,8.089981,5.887726,-5.554835,1.419382,8.200317,0.058685,0.034821,-0.016418,-0.06668,-0.002927,-0.021707,0.338357,0.161967,-0.422284,-0.825201,-0.000402,-0.001893
84,97839595294500,0.007263,8.113922,5.919449,-5.539149,1.416873,8.257477,0.062943,0.030563,-0.010025,-0.066657,0.00577,-0.022803,0.338313,0.162157,-0.422364,-0.825141,-0.000697,-0.002055
85,97839600238348,9.2e-05,8.110931,5.900299,-5.534284,1.401705,8.246672,0.065079,0.026306,-0.003632,-0.065112,0.013574,-0.022729,0.338274,0.162336,-0.422457,-0.825074,-0.000985,-0.002213
86,97839605182195,-0.007095,8.117523,5.871567,-5.535811,1.375125,8.236101,0.066147,0.015656,-0.000427,-0.058414,0.021004,-0.0277,0.338229,0.162496,-0.422571,-0.825003,-0.001289,-0.002377
87,97839610126043,0.006668,8.119919,5.854813,-5.548595,1.369197,8.218901,0.069336,0.002869,0.007019,-0.051681,0.033633,-0.032602,0.338185,0.162621,-0.42271,-0.824925,-0.001895,-0.002703
88,97839615039373,0.034195,8.118713,5.838043,-5.568201,1.370632,8.192305,0.066147,-0.006714,0.010223,-0.042669,0.038831,-0.034591,0.338144,0.162711,-0.422858,-0.824848,-0.001895,-0.002703
89,97839619952703,0.041977,8.113922,5.779388,-5.571158,1.331681,8.150315,0.062943,-0.022705,0.014481,-0.029175,0.047522,-0.039718,0.338094,0.162765,-0.42303,-0.82477,-0.002207,-0.002871
90,97839624896551,0.09465,8.119919,5.737488,-5.612982,1.320932,8.100024,0.057617,-0.030151,0.016617,-0.020136,0.050074,-0.039901,0.338049,0.162783,-0.423219,-0.824688,-0.00252,-0.00304
91,97839629840399,0.170074,8.108536,5.70517,-5.658331,1.334707,8.032936,0.048035,-0.035477,0.019806,-0.009493,0.050817,-0.035858,0.338021,0.162756,-0.423409,-0.824607,-0.002833,-0.003209
92,97839634784246,0.174866,8.110931,5.671646,-5.662501,1.312124,8.012482,0.044846,-0.036545,0.01767,-0.0065,0.04818,-0.035991,0.337988,0.162728,-0.423602,-0.824528,-0.003145,-0.003378
93,97839639697576,0.195816,8.064255,5.682419,-5.643527,1.351959,7.980175,0.040573,-0.030151,0.015549,-0.007914,0.042025,-0.031118,0.337964,0.162699,-0.423768,-0.824457,-0.00346,-0.003549
94,97839644641424,0.242493,8.091187,5.637527,-5.695185,1.3275,7.944204,0.036316,-0.025894,0.014481,-0.007834,0.037612,-0.026889,0.337949,0.162667,-0.423946,-0.824378,-0.003722,-0.00371
95,97839649463201,0.264038,8.090576,5.652496,-5.708757,1.351969,7.941037,0.033127,-0.019501,0.011292,-0.010044,0.031054,-0.023237,0.33794,0.162641,-0.424105,-0.824305,-0.003983,-0.003871
96,97839654590154,0.247284,8.073822,5.6483,-5.684177,1.351453,7.938186,0.032059,-0.014175,0.011292,-0.012978,0.028408,-0.019513,0.337934,0.162628,-0.424258,-0.824232,-0.004241,-0.004032
97,97839659625555,0.249084,8.058853,5.645905,-5.674412,1.359282,7.926972,0.030991,-0.007782,0.010223,-0.016673,0.024461,-0.015786,0.337935,0.162627,-0.424398,-0.82416,-0.004498,-0.004192
98,97839664508367,0.267044,8.056473,5.605804,-5.685824,1.338373,7.891976,0.032059,-0.003525,0.009155,-0.020418,0.02229,-0.014501,0.337938,0.162635,-0.424545,-0.824081,-0.004753,-0.00435
99,97839669391180,0.255661,8.063644,5.624359,-5.681917,1.348626,7.913161,0.03418,0.000732,0.007019,-0.02494,0.019697,-0.014426,0.337939,0.162658,-0.424686,-0.824003,-0.005005,-0.004506
100,97839674335027,0.28978,8.034317,5.645309,-5.685332,1.394794,7.888933,0.03418,0.006058,0.008087,-0.02862,0.018374,-0.010662,0.337956,0.162674,-0.424816,-0.823926,-0.00526,-0.004661
101,97839679248358,0.304749,8.039703,5.598633,-5.700521,1.364171,7.856048,0.033127,0.011383,0.009155,-0.031542,0.016613,-0.006314,0.337981,0.162698,-0.424954,-0.82384,-0.005518,-0.004816
102,97839684192205,0.30954,8.006195,5.603409,-5.680574,1.386615,7.835911,0.029922,0.016708,0.007019,-0.032981,0.011359,-0.002647,0.338011,0.162728,-0.425073,-0.82376,-0.00578,-0.004971
103,97839689136053,0.346649,7.981049,5.577072,-5.690218,1.394066,7.784535,0.029922,0.019913,0.007019,-0.035207,0.010049,-0.000758,0.33805,0.162753,-0.425195,-0.823676,-0.006048,-0.005127
104,97839694049383,0.350235,7.990631,5.560318,-5.699792,1.381064,7.777852,0.028854,0.022049,0.005966,-0.035944,0.007878,0.000477,0.33809,0.162782,-0.425319,-0.82359,-0.006321,-0.005283
105,97839698993231,0.337067,7.991226,5.555527,-5.69096,1.374093,7.782161,0.024597,0.022049,0.001694,-0.032969,0.002638,0.00034,0.33812,0.162818,-0.425431,-0.823513,-0.006601,-0.00544
106,97839703937078,0.352036,7.985245,5.524399,-5.698231,1.360094,7.751601,0.018204,0.022049,-0.001495,-0.028439,-0.002619,0.002028,0.338147,0.16285,-0.425538,-0.82344,-0.006885,-0.005597
107,97839708880926,0.340668,7.98584,5.547745,-5.689965,1.376098,7.771608,0.012878,0.016708,-0.003632,-0.020942,-0.004393,0.000586,0.338166,0.16287,-0.425629,-0.823382,-0.007178,-0.005758
108,97839713824774,0.326889,7.981049,5.584854,-5.675628,1.403758,7.798162,0.004364,0.007126,-0.006821,-0.008225,-0.006621,-0.002203,0.338168,0.162866,-0.425696,-0.823347,-0.007481,-0.00592
109,97839718738104,0.29158,7.992416,5.560913,-5.658389,1.36601,7.810514,-0.004166,0.001801,-0.008957,0.001562,-0.009744,-0.001854,0.338167,0.162867,-0.42575,-0.823319,-0.007787,-0.006083
110,97839723681951,0.304749,8.022354,5.568695,-5.687773,1.366465,7.825811,-0.010559,-0.006714,-0.010025,0.012055,-0.009804,-0.003954,0.338151,0.16284,-0.425805,-0.823302,-0.0081,-0.006246
111,97839728625799,0.302948,8.042099,5.612396,-5.698255,1.393532,7.864736,-0.016953,-0.016312,-0.010025,0.023322,-0.008556,-0.006074,0.338129,0.162786,-0.425846,-0.823301,-0.008414,-0.006408
112,97839733569647,0.293381,8.013367,5.623169,-5.669982,1.410021,7.860238,-0.022278,-0.020569,-0.010025,0.030106,-0.009043,-0.005634,0.338104,0.162719,-0.425869,-0.823313,-0.008731,-0.006569
113,97839738513494,0.29277,8.036713,5.614182,-5.684805,1.39295,7.869954,-0.025467,-0.019501,-0.011093,0.031632,-0.01168,-0.003858,0.338077,0.162657,-0.425892,-0.823324,-0.008985,-0.006731
114,97839743457342,0.276016,8.042694,5.626755,-5.675648,1.393249,7.890964,-0.032928,-0.018433,-0.013214,0.036208,-0.016956,-0.000325,0.338048,0.162597,-0.425893,-0.823347,-0.009241,-0.006891
115,97839748340154,0.29277,8.029526,5.650101,-5.677108,1.423878,7.888323,-0.036118,-0.015244,-0.014282,0.036262,-0.02046,0.002704,0.338026,0.162534,-0.425879,-0.823376,-0.009498,-0.007051
116,97839753161932,0.299957,8.071426,5.670456,-5.7102,1.425638,7.921686,-0.037186,-0.009918,-0.014282,0.033329,-0.023084,0.006442,0.338011,0.16248,-0.425863,-0.823401,-0.009755,-0.007209
117,97839758014227,0.30954,8.072632,5.677628,-5.717251,1.434235,7.921781,-0.039322,-0.002457,-0.014282,0.029679,-0.027028,0.012037,0.338006,0.162436,-0.425835,-0.823426,-0.010013,-0.007367
118,97839763110662,0.277206,8.067841,5.695587,-5.690318,1.436333,7.947571,-0.036118,0.007126,-0.013214,0.020738,-0.028741,0.016547,0.338007,0.162421,-0.425793,-0.823451,-0.010274,-0.007529
119,97839768085027,0.297562,8.046295,5.725525,-5.689544,1.477002,7.941071,-0.035049,0.014587,-0.012146,0.014806,-0.030481,0.020987,0.338024,0.162409,-0.425739,-0.823474,-0.010536,-0.007692
120,97839773028875,0.280212,8.02774,5.72612,-5.66481,1.476795,7.939812,-0.033997,0.02417,-0.012146,0.007388,-0.033963,0.026066,0.338049,0.162422,-0.425674,-0.823495,-0.0108,-0.007858
121,97839777972723,0.275421,8.02475,5.731506,-5.66016,1.479453,7.943329,-0.030792,0.0327,-0.011093,-0.000827,-0.035261,0.029942,0.338083,0.162454,-0.425606,-0.82351,-0.011067,-0.008025
122,97839782916570,0.263443,8.049286,5.711746,-5.670184,1.447619,7.952221,-0.032928,0.036957,-0.008957,-0.002213,-0.036168,0.03489,0.338122,0.162499,-0.425541,-0.823518,-0.011334,-0.008194
123,97839787860418,0.276611,8.013367,5.715942,-5.655779,1.470073,7.925499,-0.038254,0.038025,-0.012146,0.000802,-0.041425,0.036608,0.338162,0.162538,-0.425457,-0.823537,-0.011604,-0.008364
124,97839792804266,0.295776,8.001999,5.687805,-5.663238,1.458614,7.891184,-0.043579,0.035889,-0.017471,0.006003,-0.047102,0.035181,0.338194,0.162568,-0.425371,-0.823563,-0.011875,-0.008537
125,97839797717596,0.298767,8.007385,5.700974,-5.669572,1.466597,7.900225,-0.053162,0.028427,-0.018539,0.018053,-0.048933,0.035463,0.33822,0.162573,-0.42527,-0.823603,-0.012139,-0.008705
126,97839802661443,0.28978,7.984039,5.753647,-5.646435,1.51227,7.922381,-0.068085,0.023102,-0.021744,0.032412,-0.055612,0.038716,0.338243,0.162555,-0.425122,-0.823674,-0.012413,-0.008881
127,97839807605291,0.305939,7.972076,5.78418,-5.649414,1.545073,7.924726,-0.080856,0.016708,-0.027069,0.045929,-0.062671,0.03889,0.338258,0.162508,-0.424943,-0.82377,-0.012677,-0.009051
128,97839812549139,0.286194,7.978058,5.858994,-5.637861,1.590365,7.984007,-0.093643,0.005005,-0.02919,0.063217,-0.064965,0.037805,0.338261,0.162429,-0.424727,-0.823895,-0.012952,-0.009229
129,97839817492986,0.27182,7.978653,5.92424,-5.626176,1.631279,8.03209,-0.104294,-0.009918,-0.036652,0.081111,-0.069359,0.030486,0.338239,0.162317,-0.424479,-0.824054,-0.013215,-0.009398
130,97839822436834,0.246689,7.949921,6.028976,-5.58538,1.710619,8.092459,-0.108566,-0.019501,-0.040909,0.090774,-0.070662,0.024644,0.338201,0.162182,-0.424193,-0.824243,-0.013479,-0.009568
131,97839827380682,0.217361,7.950516,6.095428,-5.562512,1.74454,8.150286,-0.108566,-0.029099,-0.045181,0.097379,-0.070162,0.016408,0.338143,0.162035,-0.423893,-0.82445,-0.013743,-0.009737
132,97839832324529,0.186829,7.952316,6.157669,-5.539506,1.773775,8.207237,-0.101105,-0.038681,-0.04837,0.09863,-0.065638,0.004685,0.338063,0.161883,-0.423596,-0.824666,-0.014009,-0.009905
133,97839837237859,0.143738,7.940948,6.224106,-5.498438,1.806355,8.265772,-0.091507,-0.039749,-0.050507,0.092446,-0.062861,-0.002577,0.337971,0.161747,-0.423295,-0.824884,-0.014216,-0.010048
134,97839842181707,0.127579,7.958908,6.253433,-5.497902,1.808718,8.304671,-0.07341,-0.039749,-0.049438,0.079465,-0.054354,-0.012003,0.337871,0.161629,-0.423026,-0.825087,-0.014425,-0.010191
135,97839847125555,0.122787,7.972076,6.306107,-5.501893,1.837571,8.347967,-0.047836,-0.036545,-0.047302,0.058891,-0.043164,-0.02302,0.33777,0.161534,-0.422797,-0.825264,-0.014636,-0.010335
136,97839852038885,0.122192,8.000809,6.295334,-5.521185,1.811864,8.360191,-0.020142,-0.030151,-0.046234,0.034549,-0.033272,-0.033936,0.337665,0.161479,-0.422629,-0.825404,-0.014849,-0.010479
137,97839856982733,0.147324,8.018158,6.266006,-5.551429,1.788341,8.340195,0.009689,-0.025894,-0.046234,0.010123,-0.022468,-0.047903,0.337554,0.161452,-0.422536,-0.825502,-0.015026,-0.010598
138,97839861926580,0.198212,8.044495,6.197769,-5.607226,1.743749,8.287573,0.038452,-0.019501,-0.04837,-0.015063,-0.014752,-0.06127,0.337422,0.161489,-0.422598,-0.825517,-0.015205,-0.010718
139,97839866870428,0.21257,8.091187,6.132538,-5.651036,1.678818,8.268488,0.064011,-0.013107,-0.050507,-0.037946,-0.008411,-0.072866,0.337282,0.161564,-0.422711,-0.825502,-0.015385,-0.010837
140,97839871844793,0.221542,8.081604,6.02359,-5.653312,1.600683,8.192856,0.087448,0.001801,-0.052628,-0.065202,-0.006511,-0.078271,0.337143,0.161692,-0.422864,-0.825455,-0.015564,-0.010957
141,97839876788641,0.199997,8.101959,5.911667,-5.654753,1.495435,8.14966,0.102371,0.01033,-0.055832,-0.081918,-0.006436,-0.083377,0.336999,0.161856,-0.423043,-0.82539,-0.015744,-0.011077
142,97839881732488,0.171265,8.151642,5.797943,-5.671921,1.374003,8.126265,0.115143,0.02417,-0.060089,-0.100778,-0.01034,-0.084792,0.336854,0.162067,-0.42324,-0.825307,-0.015925,-0.011197
143,97839886676336,0.120987,8.178574,5.678238,-5.658258,1.24836,8.097641,0.118347,0.034821,-0.059021,-0.110433,-0.012635,-0.079667,0.336719,0.162305,-0.423439,-0.825213,-0.016107,-0.011317
144,97839891589666,0.09166,8.22406,5.590851,-5.672269,1.14977,8.087311,0.110886,0.04335,-0.054764,-0.110876,-0.015922,-0.068022,0.336604,0.162553,-0.423621,-0.825118,-0.01629,-0.011436
145,97839896533514,0.081482,8.261765,5.528595,-5.694033,1.082741,8.076777,0.103424,0.040146,-0.046234,-0.103119,-0.010873,-0.060779,0.336504,0.162782,-0.423798,-0.825022,-0.016475,-0.011556
146,97839901477361,0.052155,8.28093,5.413071,-5.689507,0.971894,8.035101,0.087448,0.028427,-0.039841,-0.083368,-0.007558,-0.055093,0.33641,0.16297,-0.42396,-0.824941,-0.01666,-0.011674
147,97839906421209,0.022232,8.289307,5.358612,-5.675427,0.914077,8.02383,0.067215,0.013519,-0.033463,-0.058346,-0.004687,-0.048931,0.33632,0.163107,-0.424097,-0.82488,-0.016854,-0.011796
148,97839911365057,0.047974,8.309647,5.312515,-5.708913,0.88045,7.99428,0.040573,-0.002457,-0.026001,-0.027953,-0.003143,-0.039205,0.336239,0.163181,-0.424199,-0.824846,-0.017233,-0.012027
149,97839916278387,0.089874,8.328812,5.297562,-5.751992,0.878219,7.974003,0.007553,-0.019501,-0.017471,0.007791,-0.002928,-0.025948,0.336173,0.163182,-0.424253,-0.824845,-0.017233,-0.012027
150,97839921222234,0.0755,8.321625,5.321503,-5.734975,0.893859,7.992781,-0.024399,-0.035477,-0.011093,0.041992,-0.004443,-0.013926,0.336115,0.163118,-0.424256,-0.824879,-0.017425,-0.012139
151,97839926166082,0.109619,8.298874,5.40889,-5.740481,0.986291,8.013337,-0.055298,-0.0504,-0.006821,0.074674,-0.007659,-0.00312,0.336064,0.16299,-0.424207,-0.824951,-0.017619,-0.012249
152,97839931109930,0.107224,8.271942,5.533981,-5.715695,1.09465,8.074285,-0.081924,-0.06105,-0.0047,0.101285,-0.012612,0.006555,0.336018,0.162813,-0.424107,-0.825056,-0.017815,-0.012357
153,97839936023260,0.098846,8.267761,5.630951,-5.702502,1.167535,8.135813,-0.104294,-0.067444,0.001694,0.121956,-0.014111,0.018874,0.335988,0.162598,-0.423966,-0.825182,-0.01796,-0.01241
154,97839940967108,0.101242,8.24382,5.738083,-5.682518,1.260744,8.186326,-0.119217,-0.08342,0.009155,0.143915,-0.007685,0.022019,0.335964,0.162328,-0.423806,-0.825328,-0.018105,-0.012461
155,97839945910955,0.125778,8.168991,5.861984,-5.642132,1.397592,8.205127,-0.123474,-0.1026,0.012344,0.160323,0.001061,0.014841,0.335929,0.162007,-0.423646,-0.825487,-0.018251,-0.01251
156,97839950854803,0.135956,8.126495,5.912872,-5.614511,1.456028,8.208391,-0.124542,-0.113251,0.016617,0.168544,0.008473,0.011567,0.335893,0.161657,-0.423493,-0.825649,-0.0184,-0.012558
157,97839955920721,0.199402,8.112137,5.993668,-5.644035,1.549364,8.216748,-0.12027,-0.114319,0.02301,0.166319,0.015839,0.012259,0.335869,0.161289,-0.423345,-0.825807,-0.01855,-0.012607
158,97839960773016,0.247879,8.059464,6.058914,-5.634936,1.639206,8.202882,-0.111755,-0.110046,0.025131,0.15726,0.019339,0.011228,0.335717,0.160873,-0.42324,-0.826003,-0.018701,-0.012655
159,97839965655828,0.276611,8.005585,6.070282,-5.615737,1.680441,8.164183,-0.102173,-0.103653,0.024063,0.145907,0.019773,0.009083,0.33584,0.160617,-0.423095,-0.826078,-0.018856,-0.012703
160,97839970599676,0.305344,7.964294,6.088242,-5.60364,1.721038,8.138004,-0.088318,-0.093002,0.020874,0.128479,0.018552,0.005831,0.335825,0.160322,-0.422991,-0.826194,-0.019014,-0.012753
161,97839975513006,0.348434,7.963089,6.115768,-5.629911,1.759266,8.132889,-0.072342,-0.081284,0.01767,0.108778,0.017772,0.002057,0.335811,0.160066,-0.42291,-0.826291,-0.019174,-0.012805
162,97839980456854,0.354431,7.92778,6.176224,-5.605771,1.823072,8.146948,-0.057419,-0.066376,0.012344,0.08759,0.013519,-0.000486,0.335796,0.159855,-0.422841,-0.826373,-0.019337,-0.012859
163,97839985400701,0.349045,7.878098,6.185806,-5.56527,1.847312,8.128079,-0.041443,-0.0504,-0.000427,0.064753,0.00327,-0.007362,0.335766,0.159704,-0.422784,-0.826444,-0.019502,-0.012915
164,97839990314031,0.355026,7.858948,6.204361,-5.554548,1.871357,8.125772,-0.022278,-0.035477,-0.008957,0.040417,-0.001777,-0.014087,0.335727,0.159607,-0.422749,-0.826496,-0.019668,-0.012973
165,97839995257879,0.299362,7.843384,6.193588,-5.502972,1.844872,8.141406,-0.002029,-0.021637,-0.019608,0.016001,-0.007627,-0.023293,0.335671,0.159569,-0.422739,-0.826531,-0.019836,-0.013033
166,97840000201727,0.256271,7.852356,6.148697,-5.478745,1.786412,8.143933,0.017136,-0.00885,-0.031326,-0.006924,-0.01436,-0.033153,0.335596,0.159588,-0.422754,-0.82655,-0.020008,-0.013096
167,97840005145574,0.205383,7.845779,6.116974,-5.438335,1.742244,8.148917,0.03418,-0.000336,-0.039841,-0.025299,-0.017631,-0.042483,0.335504,0.159651,-0.422794,-0.826555,-0.020176,-0.013158
168,97840010089422,0.140152,7.878693,6.076263,-5.415278,1.6687,8.179521,0.046967,0.006058,-0.046234,-0.039085,-0.020106,-0.04948,0.335398,0.159748,-0.422853,-0.826549,-0.020354,-0.013225
169,97840015002752,0.085083,7.884689,5.961945,-5.382593,1.551705,8.144954,0.058685,0.008194,-0.051559,-0.049138,-0.020405,-0.05778,0.335278,0.159869,-0.422935,-0.826533,-0.020532,-0.013293
170,97840019946600,0.048569,7.912811,5.933807,-5.376929,1.503086,8.164213,0.067215,0.008194,-0.053696,-0.055347,-0.01859,-0.063714,0.335148,0.160003,-0.423036,-0.826508,-0.020712,-0.013363
171,97840024890447,0.003677,7.921799,5.858398,-5.352801,1.421153,8.148834,0.073608,0.006058,-0.052628,-0.058476,-0.014201,-0.067848,0.335013,0.16014,-0.423154,-0.826475,-0.020893,-0.013434
172,97840029834295,-0.0047,7.949921,5.771011,-5.368281,1.336966,8.117878,0.074661,0.000732,-0.051559,-0.055543,-0.010717,-0.070945,0.334874,0.160268,-0.423284,-0.826441,-0.021078,-0.013507
173,97840034778143,0.025223,7.979858,5.655487,-5.413142,1.245299,8.050493,0.071472,-0.000336,-0.050507,-0.052474,-0.010794,-0.069204,0.334737,0.16039,-0.423414,-0.826406,-0.021265,-0.013583
174,97840039691473,0.015045,7.98584,5.615982,-5.411165,1.208049,8.035734,0.064011,0.003937,-0.046234,-0.04993,-0.012275,-0.060056,0.334616,0.160511,-0.423528,-0.826373,-0.021357,-0.013582
175,97840044635320,0.025223,8.02594,5.597427,-5.44706,1.181583,8.042448,0.050171,0.005005,-0.041977,-0.040556,-0.015079,-0.049316,0.33451,0.160619,-0.423618,-0.826349,-0.021453,-0.013582
176,97840049426580,0.009659,8.021149,5.564514,-5.433461,1.150997,8.028413,0.033127,0.001801,-0.036652,-0.025899,-0.016557,-0.038719,0.33442,0.1607,-0.423677,-0.826339,-0.021552,-0.013582
177,97840054339910,-0.004105,8.028336,5.596237,-5.427814,1.167684,8.058995,0.016083,-0.009918,-0.035583,-0.005454,-0.017907,-0.035676,0.334324,0.160744,-0.423711,-0.826352,-0.021654,-0.013583
178,97840059405828,0.005478,8.019958,5.611191,-5.428049,1.186514,8.058146,0.002228,-0.024826,-0.033463,0.014893,-0.015738,-0.035659,0.334221,0.160743,-0.423729,-0.826385,-0.02176,-0.013583
179,97840064410711,0.024033,8.009781,5.613586,-5.433426,1.199133,8.044217,-0.013748,-0.032288,-0.031326,0.031648,-0.017539,-0.03006,0.334121,0.160709,-0.423722,-0.826435,-0.021869,-0.013584
180,97840069354559,-0.011887,8.001404,5.672241,-5.399273,1.233309,8.094667,-0.025467,-0.040802,-0.02919,0.046042,-0.017123,-0.027429,0.334023,0.160648,-0.423695,-0.8265,-0.021982,-0.013584
181,97840074298406,0.023422,7.973267,5.730301,-5.402955,1.30442,8.094221,-0.036118,-0.046143,-0.02919,0.05744,-0.019309,-0.02477,0.333925,0.160564,-0.423649,-0.82658,-0.022098,-0.013585
182,97840079242254,0.021637,8.001999,5.734497,-5.419661,1.292621,8.116236,-0.042511,-0.049332,-0.027069,0.064307,-0.018908,-0.021924,0.33383,0.160466,-0.423593,-0.826666,-0.022216,-0.013585
183,97840084186102,0.025818,7.951721,5.789566,-5.385417,1.357284,8.118173,-0.045715,-0.0504,-0.024933,0.067402,-0.018056,-0.019562,0.333741,0.16036,-0.423529,-0.826756,-0.022336,-0.013587
184,97840089129949,0.023422,7.950516,5.848221,-5.38032,1.40158,8.154797,-0.044647,-0.044006,-0.024933,0.062229,-0.020275,-0.016371,0.333658,0.160266,-0.42346,-0.826843,-0.022459,-0.013589
185,97840094043279,0.071915,7.981644,5.818298,-5.436144,1.382216,8.130333,-0.042511,-0.038681,-0.022797,0.057055,-0.019882,-0.013135,0.333586,0.160182,-0.423395,-0.826922,-0.022583,-0.013593
186,97840098987127,0.083878,7.934967,5.82309,-5.411804,1.408352,8.099881,-0.040375,-0.026962,-0.021744,0.047469,-0.023046,-0.00674,0.333527,0.160121,-0.423323,-0.826994,-0.022706,-0.013598
187,97840103930975,0.070114,7.919998,5.844635,-5.390878,1.423995,8.111826,-0.040375,-0.012054,-0.021744,0.037228,-0.02929,0.002098,0.333483,0.16009,-0.423238,-0.827061,-0.022834,-0.013606
188,97840108874822,0.068314,7.900848,5.818298,-5.377101,1.407796,8.086137,-0.039322,-0.000336,-0.021744,0.028415,-0.033764,0.008468,0.333452,0.160085,-0.423146,-0.827122,-0.02296,-0.013616
189,97840113818670,0.095856,7.896652,5.836258,-5.39452,1.433413,8.079156,-0.037186,0.01033,-0.019608,0.019575,-0.035627,0.014883,0.333436,0.160099,-0.42305,-0.827175,-0.023227,-0.013645
190,97840118732000,0.094055,7.851166,5.819489,-5.363142,1.436174,8.043026,-0.037186,0.017776,-0.018539,0.01448,-0.037893,0.019925,0.33343,0.160127,-0.422948,-0.827224,-0.023361,-0.013663
191,97840123675848,0.092255,7.830215,5.814697,-5.348491,1.438298,8.028471,-0.037186,0.019913,-0.018539,0.013013,-0.038792,0.021186,0.333426,0.160159,-0.422843,-0.827272,-0.023497,-0.013684
192,97840128619695,0.121597,7.852966,5.819489,-5.386259,1.442603,8.028539,-0.039322,0.017776,-0.021744,0.015981,-0.041371,0.019186,0.333416,0.160187,-0.422736,-0.827326,-0.023575,-0.013664
193,97840133563543,0.109024,7.804474,5.823685,-5.344393,1.458575,8.00918,-0.044647,0.011383,-0.026001,0.024175,-0.044333,0.015783,0.333391,0.160201,-0.42262,-0.827392,-0.023656,-0.013645
194,97840138507391,0.103638,7.791306,5.822479,-5.331886,1.458146,8.003832,-0.046768,0.003937,-0.02919,0.030785,-0.044654,0.010635,0.333354,0.160203,-0.422504,-0.827467,-0.023737,-0.013626
195,97840143420721,0.097656,7.787125,5.860199,-5.324066,1.484766,8.027488,-0.051041,-0.006714,-0.034515,0.041127,-0.046237,0.003498,0.333296,0.160184,-0.422385,-0.827554,-0.023821,-0.013606
196,97840148242498,0.077896,7.791306,5.897308,-5.311816,1.501369,8.063454,-0.05423,-0.013107,-0.039841,0.047757,-0.049156,-0.001714,0.333224,0.160156,-0.422263,-0.827651,-0.023906,-0.013586
197,97840153277899,0.063538,7.824829,5.911072,-5.32385,1.488843,8.100165,-0.05423,-0.01738,-0.041977,0.050668,-0.049064,-0.005528,0.333138,0.160121,-0.422139,-0.827755,-0.023993,-0.013563
198,97840158252264,0.041382,7.864334,5.92244,-5.334628,1.468596,8.143082,-0.05423,-0.012054,-0.043045,0.047005,-0.052158,-0.003023,0.333057,0.160101,-0.422012,-0.827857,-0.024082,-0.013539
199,97840163165594,0.009064,7.843979,5.96315,-5.296675,1.492868,8.173359,-0.055298,-0.006714,-0.046234,0.044078,-0.057413,-0.001186,0.332975,0.160094,-0.421876,-0.82796,-0.024173,-0.013514
200,97840168109441,-0.051987,7.905624,6.006836,-5.294429,1.472941,8.269409,-0.055298,0.000732,-0.043045,0.03903,-0.057982,0.005096,0.332906,0.160103,-0.421733,-0.828059,-0.024265,-0.013485
201,97840173053289,-0.017273,7.903839,6.002045,-5.319143,1.481019,8.246749,-0.049973,0.005005,-0.03772,0.03232,-0.05328,0.007863,0.332851,0.160118,-0.421601,-0.828146,-0.024359,-0.013456
202,97840177966619,0.006073,7.878098,5.991272,-5.319945,1.488695,8.212296,-0.045715,0.008194,-0.034515,0.027097,-0.050273,0.009313,0.332793,0.160163,-0.421417,-0.828254,-0.024454,-0.013424
203,97840182910467,0.022232,7.928375,5.982895,-5.367639,1.463569,8.22807,-0.043579,0.01033,-0.032394,0.02412,-0.048578,0.010657,0.33274,0.160212,-0.421252,-0.82835,-0.02455,-0.013392
204,97840187854315,0.043777,7.952316,5.936813,-5.401757,1.422122,8.202776,-0.040375,0.014587,-0.031326,0.018894,-0.048188,0.01205,0.332693,0.16027,-0.421112,-0.828428,-0.024648,-0.013359
205,97840192767645,0.083878,7.952316,5.918259,-5.432385,1.420903,8.169604,-0.043579,0.016708,-0.02919,0.019807,-0.048703,0.016312,0.332661,0.160315,-0.420978,-0.828501,-0.024743,-0.013328
206,97840197711492,0.051559,7.955307,5.940399,-5.411915,1.420653,8.201878,-0.046768,0.015656,-0.02919,0.022856,-0.049584,0.01742,0.332624,0.160364,-0.420828,-0.828582,-0.024843,-0.013296
207,97840202655340,0.071915,7.982849,5.966141,-5.446585,1.434651,8.222064,-0.051041,0.018845,-0.030258,0.023768,-0.053577,0.020988,0.332594,0.160409,-0.420669,-0.828666,-0.024945,-0.013265
208,97840207599188,0.085678,8.007385,5.994263,-5.474201,1.448789,8.24566,-0.05423,0.015656,-0.036652,0.028198,-0.058689,0.017027,0.332551,0.160445,-0.420505,-0.82876,-0.025043,-0.013236
209,97840212543035,0.116806,7.999603,6.00444,-5.49236,1.469591,8.230123,-0.053162,0.015656,-0.035583,0.027445,-0.057385,0.017065,0.332517,0.160468,-0.420344,-0.828851,-0.025145,-0.013208
210,97840217486883,0.086273,7.984039,6.048737,-5.459926,1.49509,8.263986,-0.053162,0.013519,-0.034515,0.028935,-0.055617,0.016422,0.33248,0.16049,-0.420167,-0.828951,-0.025249,-0.013182
211,97840222400213,0.043182,7.991226,6.096619,-5.434012,1.508234,8.320283,-0.052094,0.01033,-0.033463,0.030371,-0.052968,0.014568,0.332437,0.160515,-0.419979,-0.829059,-0.025355,-0.013158
212,97840227344061,0.006668,7.981049,6.084045,-5.401809,1.483145,8.326674,-0.046768,0.007126,-0.032394,0.028719,-0.048523,0.010397,0.332385,0.16055,-0.419802,-0.829162,-0.025463,-0.013137
213,97840232287908,0.019836,8.000198,6.103806,-5.425199,1.492657,8.342612,-0.038254,0.003937,-0.02919,0.024763,-0.041041,0.005774,0.332334,0.160576,-0.419649,-0.829255,-0.025572,-0.013118
214,97840237231756,0.017441,7.972076,6.074478,-5.405518,1.476746,8.309822,-0.033997,0.005005,-0.028137,0.020954,-0.038876,0.004701,0.332285,0.160609,-0.419507,-0.82934,-0.025642,-0.013091
215,97840242175604,-0.017273,7.978058,6.073868,-5.385666,1.456156,8.331609,-0.026535,0.009262,-0.026001,0.012639,-0.035872,0.004408,0.332236,0.160666,-0.419375,-0.829415,-0.025716,-0.013064
216,97840247088934,-0.023849,8.023544,6.059509,-5.413737,1.419849,8.352898,-0.02121,0.013519,-0.026001,0.005852,-0.035474,0.004007,0.332186,0.160743,-0.419265,-0.829476,-0.025793,-0.013039
217,97840252124334,-0.037628,8.026535,6.025391,-5.408037,1.383183,8.340979,-0.018005,0.020981,-0.023865,-0.001566,-0.035619,0.007923,0.332143,0.160846,-0.419163,-0.829525,-0.025873,-0.013014
218,97840256915594,-0.053787,8.021149,6.020599,-5.394625,1.372823,8.342822,-0.015884,0.02417,-0.021744,-0.005267,-0.034401,0.009904,0.332104,0.160957,-0.419066,-0.829568,-0.025956,-0.012991
219,97840261920477,-0.0448,8.049881,6.045746,-5.422657,1.382343,8.368847,-0.014816,0.026306,-0.021744,-0.007504,-0.034874,0.010573,0.332069,0.161071,-0.418968,-0.82961,-0.026042,-0.012968
220,97840266864324,-0.06456,8.070831,6.057114,-5.424636,1.372213,8.397708,-0.015884,0.026306,-0.018539,-0.006688,-0.032751,0.013064,0.332038,0.161186,-0.418869,-0.82965,-0.026131,-0.012945
221,97840271808172,-0.072937,8.079208,6.000259,-5.426963,1.317829,8.37218,-0.014816,0.02417,-0.020676,-0.006017,-0.033107,0.009946,0.331996,0.16131,-0.41879,-0.829682,-0.02622,-0.012922
222,97840276752020,-0.084915,8.10614,5.981705,-5.438955,1.28508,8.382353,-0.011627,0.023102,-0.017471,-0.007567,-0.028754,0.009489,0.331954,0.161438,-0.418729,-0.829705,-0.026311,-0.0129
223,97840281695867,-0.054382,8.105545,5.952972,-5.46279,1.274183,8.347161,-0.009491,0.020981,-0.012146,-0.00761,-0.022687,0.010256,0.331924,0.16155,-0.41869,-0.829715,-0.026402,-0.012876
224,97840286639715,-0.04541,8.117523,5.890717,-5.479775,1.222592,8.311079,-0.010559,0.020981,-0.005753,-0.006771,-0.018004,0.014657,0.331906,0.161658,-0.418671,-0.82971,-0.026493,-0.012851
225,97840291583563,-0.029251,8.118118,5.896103,-5.493592,1.233003,8.304749,-0.014816,0.025238,-0.0047,-0.006586,-0.020754,0.020111,0.3319,0.161763,-0.418642,-0.829707,-0.026585,-0.012824
226,97840296527410,0.024628,8.096573,5.918854,-5.519306,1.282479,8.275287,-0.018005,0.028427,-0.001495,-0.006428,-0.020877,0.025638,0.331916,0.161845,-0.418603,-0.829704,-0.026671,-0.012795
227,97840301440740,0.064728,8.079803,5.926025,-5.538296,1.311437,8.246978,-0.024399,0.030563,-0.001495,-0.003248,-0.024451,0.030385,0.331945,0.161909,-0.418549,-0.829708,-0.026754,-0.012763
228,97840306384588,0.044983,8.083405,5.900299,-5.528125,1.280369,8.24363,-0.028671,0.030563,-0.001495,-0.000147,-0.026228,0.032718,0.331971,0.161979,-0.418492,-0.829712,-0.026836,-0.012729
229,97840311328436,0.071915,8.068436,5.94339,-5.538269,1.331666,8.245178,-0.027603,0.027374,-0.001495,0.001262,-0.024418,0.03026,0.332001,0.162028,-0.418428,-0.829723,-0.026916,-0.01269
230,97840316272283,0.099442,8.052277,5.936813,-5.548203,1.343882,8.216213,-0.029724,0.02417,-0.002563,0.004991,-0.024782,0.0289,0.332031,0.16206,-0.418365,-0.829736,-0.026995,-0.012648
231,97840321216131,0.090469,8.049881,5.909271,-5.541155,1.31802,8.202845,-0.035049,0.020981,-0.005753,0.011021,-0.028186,0.028033,0.332051,0.162089,-0.418299,-0.829756,-0.027072,-0.012604
232,97840326159979,0.080887,8.077423,5.946976,-5.553569,1.330926,8.246469,-0.041443,0.017776,-0.007889,0.01785,-0.031182,0.028369,0.332064,0.16211,-0.418216,-0.829788,-0.027225,-0.012515
233,97840331103826,0.0336,8.070831,5.997253,-5.515156,1.352122,8.298276,-0.049973,0.014587,-0.005753,0.026258,-0.031649,0.032435,0.332078,0.162126,-0.418098,-0.82984,-0.027225,-0.012515
234,97840336047674,0.030609,8.082809,6.06131,-5.521333,1.394219,8.345255,-0.055298,0.008194,-0.007889,0.034501,-0.032832,0.030315,0.332084,0.162122,-0.417959,-0.829908,-0.027285,-0.012464
235,97840340961004,0.013855,8.078613,6.140915,-5.506151,1.449486,8.399779,-0.055298,0.002869,-0.007889,0.038159,-0.030548,0.027185,0.332087,0.162104,-0.4178,-0.82999,-0.027347,-0.012417
236,97840345874334,0.022827,8.069031,6.18042,-5.506158,1.485582,8.413247,-0.053162,0.000732,-0.0047,0.038101,-0.026193,0.026666,0.332097,0.162072,-0.417639,-0.830074,-0.027409,-0.012375
237,97840350818182,0.039597,8.052277,6.243866,-5.506592,1.547126,8.432701,-0.046768,0.000732,-0.003632,0.033463,-0.022685,0.023803,0.332113,0.162029,-0.417473,-0.830159,-0.027472,-0.012337
238,97840355609441,-0.00351,8.075027,6.28038,-5.491103,1.545461,8.49168,-0.035049,0.000732,-0.001495,0.024962,-0.016102,0.018677,0.332122,0.162009,-0.417323,-0.830235,-0.027536,-0.012305
239,97840360797430,0.000687,8.073822,6.304321,-5.493683,1.564046,8.503191,-0.024399,0.002869,-0.000427,0.015762,-0.011738,0.014748,0.332134,0.161994,-0.417185,-0.830302,-0.0276,-0.012279
240,97840365680242,0.005478,8.054672,6.273193,-5.485168,1.547165,8.470535,-0.01268,0.011383,-0.001495,0.001388,-0.011388,0.012687,0.332147,0.162009,-0.417072,-0.830351,-0.027664,-0.012258
241,97840370563055,0.036591,8.032532,6.298935,-5.493557,1.58854,8.455584,0.00116,0.023102,-0.000427,-0.016713,-0.009829,0.012621,0.332176,0.162041,-0.416971,-0.830384,-0.027728,-0.012241
242,97840375506902,0.019241,8.052872,6.290543,-5.496785,1.5648,8.470937,0.013947,0.035889,0.001694,-0.034775,-0.008327,0.01438,0.332214,0.162117,-0.416892,-0.830393,-0.027791,-0.012228
243,97840380450750,0.053955,8.012772,6.272598,-5.4967,1.581712,8.416491,0.026733,0.047607,-0.000427,-0.052135,-0.009758,0.012962,0.332261,0.162215,-0.41683,-0.830386,-0.027853,-0.012218
244,97840385364080,0.023422,8.004395,6.258224,-5.47152,1.561016,8.417955,0.038452,0.05719,-0.001495,-0.067245,-0.00987,0.011498,0.332306,0.162354,-0.416783,-0.830365,-0.027915,-0.01221
245,97840390307928,0.01445,7.977463,6.26062,-5.449539,1.570903,8.406565,0.046967,0.06572,-0.002563,-0.079304,-0.010864,0.011159,0.332355,0.162519,-0.416738,-0.830336,-0.027978,-0.012202
246,97840395251775,-0.001709,7.968475,6.234879,-5.435099,1.547973,8.392481,0.056564,0.069977,-0.003632,-0.089209,-0.009565,0.007723,0.332398,0.162708,-0.416712,-0.830294,-0.028043,-0.012194
247,97840400195623,-0.011292,7.949326,6.218124,-5.418397,1.539653,8.374217,0.066147,0.068909,-0.005753,-0.095447,-0.006819,0.000548,0.332432,0.162907,-0.416705,-0.830246,-0.028108,-0.012184
248,97840405139471,-0.02565,7.94873,6.205551,-5.410788,1.525088,8.37194,0.074661,0.063583,-0.0047,-0.097955,-0.000143,-0.006626,0.332456,0.163107,-0.416721,-0.830189,-0.028245,-0.012156
249,97840410052801,-0.071136,7.936157,6.134933,-5.372714,1.456752,8.344869,0.082123,0.059326,-0.0047,-0.100438,0.004785,-0.013236,0.332462,0.163324,-0.416765,-0.830121,-0.028245,-0.012156
250,97840414996649,-0.08252,7.92897,6.125946,-5.362498,1.449875,8.339311,0.088516,0.052933,-0.003632,-0.100666,0.01104,-0.019867,0.33246,0.163536,-0.416828,-0.830049,-0.028316,-0.012138
251,97840419940496,-0.063354,7.924789,6.10141,-5.37606,1.442511,8.309672,0.095978,0.04335,-0.000427,-0.09946,0.020824,-0.027665,0.332454,0.163726,-0.416923,-0.829966,-0.028389,-0.012115
252,97840424884344,-0.068146,7.955917,6.039154,-5.39654,1.380428,8.291229,0.102371,0.038025,-0.001495,-0.100431,0.024896,-0.034956,0.332434,0.163921,-0.417058,-0.829868,-0.028465,-0.012089
253,97840429797674,-0.04541,7.977463,5.930817,-5.430453,1.297819,8.2245,0.106628,0.038025,-0.001495,-0.103511,0.026635,-0.037333,0.332409,0.164123,-0.417236,-0.829748,-0.028524,-0.012057
254,97840434741522,-0.023254,8.015762,5.90509,-5.474883,1.274498,8.217324,0.109818,0.036957,0.001694,-0.105066,0.030948,-0.037844,0.332391,0.16432,-0.41744,-0.829614,-0.028582,-0.012021
255,97840439654852,-0.016083,8.02713,5.820084,-5.490409,1.20943,8.167082,0.107697,0.044418,0.002762,-0.108654,0.02769,-0.031731,0.33238,0.164535,-0.417659,-0.829466,-0.02864,-0.011983
256,97840444629217,0.001282,8.06485,5.775192,-5.533043,1.170721,8.149204,0.106628,0.054001,0.004898,-0.114454,0.024839,-0.024349,0.332488,0.164822,-0.41787,-0.829259,-0.028698,-0.011942
257,97840449420477,0.000687,8.074417,5.698578,-5.540683,1.109194,8.108053,0.102371,0.062515,0.007019,-0.117229,0.021096,-0.015797,0.332401,0.165007,-0.4181,-0.829141,-0.028755,-0.0119
258,97840454242254,0.01445,8.067841,5.648911,-5.551676,1.084533,8.062454,0.097031,0.075302,0.009155,-0.122157,0.015141,-0.004211,0.332595,0.165353,-0.418279,-0.828904,-0.028812,-0.011857
259,97840459277654,0.01265,8.059464,5.645905,-5.545986,1.089344,8.055226,0.089584,0.088089,0.012344,-0.125573,0.009127,0.009237,0.332495,0.165563,-0.418516,-0.828782,-0.028869,-0.011813
260,97840464282537,0.012054,8.050476,5.635742,-5.543257,1.08999,8.040904,0.078934,0.094482,0.014481,-0.122273,0.00373,0.020064,0.332571,0.165854,-0.418692,-0.828605,-0.028926,-0.01177
261,97840469287420,0.007874,8.049286,5.596832,-5.543467,1.062469,8.016032,0.067215,0.096603,0.01767,-0.115258,0.000581,0.029624,0.332658,0.16614,-0.418852,-0.828432,-0.028984,-0.011728
262,97840474261785,0.012054,8.023544,5.584854,-5.532432,1.069971,7.988447,0.052292,0.092346,0.020874,-0.101529,-0.001141,0.037262,0.332755,0.166397,-0.418982,-0.828275,-0.029042,-0.011689
263,97840479205633,-0.005295,8.001404,5.58606,-5.508049,1.076804,7.983004,0.035248,0.085953,0.021942,-0.084804,-0.004543,0.043582,0.332852,0.166627,-0.419074,-0.828143,-0.0291,-0.011651
264,97840484149481,-0.001709,7.996017,5.634537,-5.509867,1.122276,8.004134,0.019272,0.077438,0.02301,-0.067389,-0.006603,0.04809,0.332953,0.166817,-0.419127,-0.828038,-0.029158,-0.011616
265,97840489093328,-0.010696,7.989426,5.662674,-5.501346,1.145958,8.019902,0.003296,0.064651,0.026199,-0.047014,-0.005138,0.051384,0.333055,0.166963,-0.419147,-0.827957,-0.029217,-0.011583
266,97840494037176,-0.086105,7.982239,5.739288,-5.444241,1.180421,8.101225,-0.011627,0.054001,0.031525,-0.028874,-0.00244,0.056617,0.333154,0.167087,-0.419115,-0.827909,-0.029274,-0.011553
267,97840498981024,-0.080719,7.975067,5.794952,-5.444881,1.230376,8.125829,-0.026535,0.038025,0.032593,-0.007068,-0.000903,0.056228,0.333249,0.167155,-0.419049,-0.82789,-0.029331,-0.011524
268,97840503894354,-0.077133,7.958908,5.820694,-5.437215,1.258825,8.129125,-0.038254,0.017776,0.037918,0.01541,0.00719,0.054111,0.33334,0.167162,-0.41897,-0.827892,-0.029387,-0.011497
269,97840508838201,-0.078323,7.947525,5.870972,-5.428552,1.302478,8.153036,-0.046768,-0.001389,0.043243,0.034832,0.016131,0.05085,0.33343,0.167111,-0.418874,-0.827915,-0.029444,-0.01147
270,97840513751531,-0.059769,7.979248,5.969727,-5.463134,1.374395,8.220395,-0.05423,-0.015244,0.048569,0.049827,0.023231,0.050099,0.333525,0.167006,-0.41876,-0.827956,-0.029499,-0.011443
271,97840518695379,-0.019669,7.970276,6.027786,-5.484569,1.439607,8.228424,-0.056366,-0.024826,0.051758,0.058021,0.028975,0.047607,0.333627,0.166856,-0.418639,-0.828006,-0.029554,-0.011415
272,97840523639227,0.01265,7.936157,6.052322,-5.482798,1.485298,8.206471,-0.057419,-0.026962,0.05603,0.060287,0.032853,0.049492,0.333744,0.166681,-0.41851,-0.828059,-0.029608,-0.011388
273,97840528583074,0.012054,7.917603,6.063095,-5.468116,1.499694,8.203675,-0.055298,-0.025894,0.057098,0.058035,0.034097,0.049577,0.333864,0.166507,-0.41838,-0.828111,-0.029661,-0.01136
274,97840533526922,0.039597,7.905029,6.14032,-5.477678,1.576626,8.228233,-0.048904,-0.020569,0.062424,0.049771,0.038712,0.052303,0.334006,0.166327,-0.418241,-0.82816,-0.029684,-0.011342
275,97840538470770,0.065323,7.904434,6.176224,-5.494537,1.6149,8.236031,-0.037186,-0.012054,0.064545,0.035447,0.041601,0.05203,0.334162,0.166159,-0.418114,-0.828195,-0.029706,-0.011323
276,97840543414617,0.080887,7.863739,6.197769,-5.477017,1.656577,8.216772,-0.023331,0.001801,0.065613,0.015875,0.042273,0.053044,0.334312,0.166068,-0.418077,-0.828172,-0.029728,-0.011302
277,97840548327947,0.128769,7.846375,6.188797,-5.499568,1.678058,8.17449,-0.004166,0.015656,0.067749,-0.007523,0.046025,0.051744,0.334473,0.166016,-0.41807,-0.828121,-0.029751,-0.011278
278,97840553302313,0.165283,7.857147,6.196579,-5.533838,1.696794,8.164382,0.009689,0.028427,0.064545,-0.026369,0.043763,0.049573,0.334637,0.166003,-0.418079,-0.828052,-0.029774,-0.011251
279,97840558093572,0.205994,7.861343,6.134933,-5.56966,1.665911,8.104574,0.022476,0.044418,0.060287,-0.046695,0.038862,0.049214,0.334957,0.166116,-0.418067,-0.827906,-0.029797,-0.011222
280,97840562945867,0.234711,7.84996,6.115768,-5.582106,1.668737,8.070621,0.035248,0.05719,0.05603,-0.064771,0.03532,0.047008,0.334961,0.166109,-0.418136,-0.827871,-0.029819,-0.011193
281,97840568042303,0.24968,7.862534,6.091232,-5.603798,1.652963,8.052951,0.041641,0.064651,0.051758,-0.074578,0.031396,0.045222,0.335128,0.166211,-0.418184,-0.827759,-0.02984,-0.011165
282,97840573016668,0.253876,7.847565,6.064301,-5.598808,1.642411,8.023735,0.045898,0.068909,0.044312,-0.080643,0.025397,0.040869,0.33528,0.16633,-0.418233,-0.827649,-0.029858,-0.011137
283,97840577960516,0.228134,7.860138,6.045746,-5.591331,1.614336,8.032172,0.046967,0.067841,0.041107,-0.080695,0.023745,0.037717,0.335421,0.166452,-0.418283,-0.827542,-0.029875,-0.01111
284,97840582934881,0.176651,7.889465,5.990082,-5.577118,1.538569,8.042668,0.045898,0.064651,0.038986,-0.077727,0.022975,0.035169,0.335554,0.166573,-0.418336,-0.827437,-0.02989,-0.011085
285,97840587848211,0.158096,7.919998,5.948181,-5.586945,1.486913,8.044092,0.043777,0.052933,0.03685,-0.068075,0.025372,0.028255,0.335669,0.166672,-0.418395,-0.827341,-0.029903,-0.011061
286,97840592792059,0.168274,7.939148,5.911667,-5.608818,1.456251,8.026629,0.038452,0.035889,0.037918,-0.052394,0.031266,0.021947,0.335771,0.166731,-0.41846,-0.827255,-0.029913,-0.011038
287,97840597705389,0.174866,7.921799,5.902084,-5.6019,1.461105,8.006494,0.033127,0.018845,0.040054,-0.036701,0.038011,0.01628,0.335862,0.166748,-0.418529,-0.827179,-0.029921,-0.011016
288,97840602649236,0.171875,7.924789,5.897308,-5.601622,1.456989,8.006815,0.026733,0.003937,0.042175,-0.02172,0.043385,0.012443,0.335944,0.166728,-0.418598,-0.827115,-0.029929,-0.010995
289,97840607593084,0.179657,7.94574,5.874557,-5.621031,1.435029,8.001386,0.018204,-0.012054,0.043243,-0.004455,0.047474,0.008543,0.336016,0.166667,-0.418665,-0.827064,-0.029936,-0.010974
290,97840612536932,0.213165,7.94873,5.859589,-5.64613,1.437352,7.976077,0.009689,-0.018433,0.043243,0.006112,0.046631,0.00958,0.336085,0.166585,-0.418722,-0.827024,-0.029942,-0.010952
291,97840617480779,0.226334,7.94574,5.877548,-5.652011,1.460035,7.978386,0.003296,-0.023758,0.04538,0.014434,0.04794,0.011316,0.336156,0.166483,-0.41877,-0.826991,-0.029947,-0.010931
292,97840622394109,0.271225,7.955917,5.890121,-5.689718,1.485708,7.967652,-0.002029,-0.02803,0.041107,0.021216,0.044087,0.009261,0.336217,0.166371,-0.418809,-0.826969,-0.029953,-0.01091
293,97840627337957,0.302353,7.978653,5.893707,-5.726361,1.492935,7.966561,-0.005234,-0.026962,0.037918,0.022766,0.039729,0.009769,0.336275,0.16626,-0.418841,-0.826952,-0.02996,-0.010889
294,97840632281805,0.29158,7.985245,5.908081,-5.72077,1.498758,7.986304,-0.005234,-0.023758,0.033661,0.020522,0.034942,0.009099,0.336359,0.166092,-0.418892,-0.826925,-0.029965,-0.010872
295,97840637225652,0.288589,7.975067,5.921249,-5.709434,1.51381,7.99105,-0.003098,-0.01738,0.031525,0.014548,0.031413,0.010346,0.336445,0.165942,-0.418934,-0.826899,-0.02997,-0.010857
296,97840642138983,0.247284,7.932571,5.966736,-5.648512,1.551962,8.01714,9.2e-05,-0.006714,0.028336,0.004823,0.02567,0.012877,0.336531,0.165827,-0.418945,-0.826882,-0.029975,-0.010843
297,97840647174383,0.205994,7.92778,6.00145,-5.614517,1.565282,8.058328,0.004364,0.003937,0.027267,-0.005657,0.022094,0.016059,0.336619,0.165748,-0.418939,-0.826865,-0.029981,-0.010832
298,97840652026678,0.188034,7.936157,6.049332,-5.607947,1.594289,8.100711,0.01181,0.016708,0.027267,-0.019886,0.019817,0.019338,0.336796,0.165744,-0.41892,-0.826803,-0.029986,-0.010821
299,97840656940008,0.149719,7.963089,6.054718,-5.598378,1.571492,8.141336,0.019272,0.028427,0.028336,-0.033387,0.018852,0.022635,0.336823,0.165688,-0.418926,-0.8268,-0.029992,-0.010812
300,97840661853338,0.143143,7.955307,6.039154,-5.58911,1.560767,8.130473,0.029922,0.031631,0.027267,-0.043273,0.021101,0.017932,0.336918,0.165709,-0.418934,-0.826753,-0.029996,-0.010803
301,97840666797186,0.13176,7.952911,6.052322,-5.58003,1.569202,8.142333,0.03952,0.033752,0.029388,-0.051621,0.025936,0.015076,0.337014,0.165743,-0.418956,-0.826696,-0.030001,-0.010796
302,97840671741033,0.121597,7.942749,6.043945,-5.566605,1.564361,8.136153,0.046967,0.0327,0.030457,-0.056222,0.030367,0.010945,0.337107,0.165783,-0.418992,-0.826632,-0.030005,-0.010789
303,97840676684881,0.142532,7.973267,6.006836,-5.603853,1.53296,8.119255,0.054428,0.029495,0.030457,-0.05934,0.034852,0.004917,0.337194,0.165823,-0.419065,-0.826552,-0.030008,-0.010781
304,97840681628729,0.19162,7.979248,5.985886,-5.643585,1.537182,8.082266,0.060822,0.023102,0.028336,-0.059486,0.038526,-0.003628,0.337274,0.165843,-0.419168,-0.826463,-0.030012,-0.010774
305,97840686603094,0.183243,7.981049,5.909271,-5.639448,1.474788,8.041884,0.066147,0.015656,0.02301,-0.058158,0.03961,-0.014095,0.337329,0.165869,-0.419307,-0.826365,-0.030015,-0.010765
306,97840691546941,0.211975,7.973862,5.859589,-5.65516,1.453677,7.991756,0.068268,0.011383,0.020874,-0.056714,0.04058,-0.019041,0.337375,0.165886,-0.419467,-0.826261,-0.030018,-0.010756
307,97840696490789,0.225739,7.995407,5.820084,-5.679875,1.42243,7.972866,0.064011,0.007126,0.016617,-0.050727,0.037163,-0.02168,0.33741,0.165896,-0.419636,-0.826159,-0.03002,-0.010746
308,97840701404119,0.237106,8.006195,5.775192,-5.695242,1.39041,7.946026,0.059753,0.002869,0.014481,-0.044722,0.035449,-0.023058,0.337437,0.165898,-0.419814,-0.826058,-0.030023,-0.010734
309,97840706347967,0.209579,8.036713,5.695587,-5.69702,1.305921,7.93164,0.050171,0.005005,0.014481,-0.039334,0.030545,-0.016485,0.337459,0.165918,-0.419993,-0.825953,-0.030025,-0.01072
310,97840711291815,0.196411,8.02594,5.645905,-5.680162,1.268547,7.902982,0.03952,0.005005,0.013412,-0.031702,0.02523,-0.011189,0.33748,0.16594,-0.420159,-0.825856,-0.030028,-0.010704
311,97840716235662,0.15332,8.026535,5.66806,-5.649282,1.27114,7.94012,0.029922,0.005005,0.013412,-0.024816,0.02122,-0.005842,0.337498,0.165966,-0.420293,-0.825775,-0.030031,-0.010684
312,97840721179510,0.176651,8.041504,5.632736,-5.676511,1.248967,7.91467,0.018204,0.005005,0.013412,-0.016411,0.016325,0.00069,0.337522,0.16598,-0.420417,-0.825699,-0.030034,-0.010662
313,97840726123358,0.199997,8.042694,5.635132,-5.693483,1.26268,7.903765,0.005432,0.000732,0.01767,-0.004231,0.016213,0.007843,0.33756,0.165962,-0.420523,-0.825633,-0.030038,-0.010637
314,97840731067205,0.189819,7.996017,5.650696,-5.652631,1.292187,7.891815,-0.007355,-0.007782,0.01767,0.010875,0.014432,0.010017,0.337595,0.165913,-0.420594,-0.825593,-0.030043,-0.01061
315,97840736011053,0.162888,8.023544,5.677628,-5.651153,1.292163,7.939395,-0.019073,-0.01738,0.015549,0.025948,0.011837,0.009707,0.337616,0.165847,-0.420641,-0.825573,-0.030043,-0.0106
316,97840740924383,0.21077,8.016968,5.717743,-5.678858,1.347867,7.933642,-0.028671,-0.025894,0.015549,0.038767,0.01138,0.010094,0.337643,0.165735,-0.420671,-0.82557,-0.030043,-0.010589
317,97840745868231,0.235321,7.999603,5.735092,-5.682178,1.379598,7.921478,-0.033997,-0.032288,0.012344,0.047012,0.009234,0.007435,0.337663,0.165597,-0.420688,-0.82558,-0.030043,-0.010578
318,97840750812078,0.211975,8.00679,5.776993,-5.667338,1.399821,7.965493,-0.037186,-0.035477,0.007019,0.051466,0.004937,0.00419,0.337617,0.165434,-0.420696,-0.825628,-0.030043,-0.010568
319,97840755603338,0.201797,8.033722,5.80513,-5.6772,1.40685,8.004441,-0.043579,-0.037613,0.005966,0.057529,0.002296,0.005877,0.337672,0.16532,-0.420674,-0.825639,-0.030044,-0.010558
320,97840760425115,0.164093,8.008575,5.844025,-5.630413,1.432353,8.035153,-0.040375,-0.033356,0.005966,0.052267,0.001852,0.006564,0.337676,0.165193,-0.420661,-0.82567,-0.030044,-0.010548
321,97840765521551,0.15271,7.994812,5.888321,-5.6109,1.467746,8.060782,-0.036118,-0.024826,0.004898,0.04326,-0.000797,0.008528,0.337683,0.165088,-0.420608,-0.825715,-0.030045,-0.010538
322,97840770526434,0.178452,8.024139,5.940399,-5.648223,1.507186,8.095248,-0.029724,-0.015244,0.005966,0.032012,-0.001269,0.011185,0.337705,0.164998,-0.420558,-0.82575,-0.030046,-0.010528
323,97840775500799,0.173065,8.001404,5.957153,-5.627709,1.527035,8.095499,-0.020142,-0.006714,0.004898,0.019185,-0.001686,0.010192,0.33773,0.164932,-0.420509,-0.825777,-0.030047,-0.010518
324,97840780444647,0.158707,8.003799,5.973312,-5.618609,1.532442,8.114759,-0.007355,0.002869,0.004898,0.003336,-0.000336,0.008665,0.337748,0.164896,-0.420476,-0.825794,-0.030049,-0.010508
325,97840785388494,0.160492,8.004395,5.974518,-5.620595,1.53375,8.114649,0.004364,0.013519,0.000626,-0.01254,-0.003321,0.005824,0.337774,0.1649,-0.420454,-0.825794,-0.03005,-0.010497
326,97840790332342,0.159897,8.026535,5.957764,-5.636484,1.511296,8.117379,0.017136,0.023102,0.001694,-0.028366,-0.001113,0.004935,0.337805,0.164938,-0.420459,-0.825771,-0.030051,-0.010486
327,97840795245672,0.140747,8.003189,5.951767,-5.607692,1.508941,8.109949,0.024597,0.0327,0.002762,-0.040393,-0.001137,0.007005,0.337842,0.165004,-0.420466,-0.825739,-0.030052,-0.010474
328,97840800189520,0.141937,8.025345,5.927231,-5.62567,1.481497,8.106504,0.026733,0.039093,0.00383,-0.046368,-0.002051,0.010167,0.337886,0.165089,-0.420484,-0.825695,-0.030054,-0.010462
329,97840805133367,0.143143,8.015167,5.909866,-5.621052,1.473637,8.088394,0.030991,0.040146,0.005966,-0.050133,0.001019,0.009665,0.337934,0.165177,-0.420513,-0.825643,-0.030055,-0.01045
330,97840810077215,0.134766,7.985245,5.890717,-5.595626,1.468506,8.063203,0.028854,0.034821,0.008087,-0.044866,0.004062,0.008999,0.33798,0.165253,-0.420541,-0.825594,-0.030056,-0.010436
331,97840815021063,0.141937,8.007385,5.836258,-5.617624,1.419771,8.039079,0.022476,0.025238,0.007019,-0.033626,0.004535,0.006332,0.338014,0.16531,-0.420584,-0.825547,-0.030057,-0.010423
332,97840819934393,0.150925,8.021149,5.805725,-5.634274,1.394443,8.023624,0.012878,0.012451,0.007019,-0.017832,0.005856,0.004229,0.338038,0.165335,-0.42063,-0.825509,-0.030058,-0.010409
333,97840824878240,0.153915,7.993027,5.816498,-5.616227,1.416528,8.012196,-0.005234,-0.006714,0.005966,0.008501,0.00542,0.002533,0.338053,0.165304,-0.420646,-0.825501,-0.030058,-0.010395
334,97840829822088,0.140152,7.98703,5.858398,-5.600547,1.446528,8.042053,-0.019073,-0.024826,0.004898,0.031036,0.006321,-0.000944,0.33805,0.165223,-0.420634,-0.825525,-0.030057,-0.010381
335,97840834765936,0.096451,7.997208,5.901489,-5.574341,1.457234,8.099104,-0.032928,-0.038681,0.00383,0.050614,0.005439,-0.001938,0.338029,0.165116,-0.420589,-0.825578,-0.030057,-0.010376
336,97840839709783,0.084488,8.012177,5.947586,-5.573731,1.480897,8.143491,-0.046768,-0.051468,0.004898,0.069462,0.005839,-0.001065,0.338002,0.164972,-0.420516,-0.825655,-0.030055,-0.010371
337,97840844531561,0.059937,7.978058,6.009232,-5.529326,1.531571,8.175862,-0.055298,-0.06424,0.009155,0.08453,0.011029,-0.001261,0.337975,0.164794,-0.420412,-0.825754,-0.030054,-0.010366
338,97840849414373,0.069519,7.972672,6.099609,-5.528541,1.60711,8.2235,-0.058487,-0.07489,0.011292,0.094261,0.015865,-0.004454,0.337948,0.164575,-0.420287,-0.825872,-0.030053,-0.010362
339,97840854266668,0.0737,7.963089,6.167252,-5.520968,1.663553,8.258495,-0.057419,-0.080231,0.014481,0.097253,0.021116,-0.006297,0.337926,0.164335,-0.420152,-0.825998,-0.030052,-0.010357
340,97840859363104,0.13176,7.919998,6.20256,-5.528604,1.730672,8.225249,-0.052094,-0.081284,0.016617,0.09419,0.02551,-0.008629,0.337916,0.164058,-0.420017,-0.826125,-0.030051,-0.010354
341,97840864367986,0.148529,7.932571,6.22052,-5.545589,1.743573,8.237053,-0.043579,-0.081284,0.016617,0.088075,0.029088,-0.013377,0.337906,0.163788,-0.419902,-0.826242,-0.03005,-0.01035
342,97840869311834,0.155106,7.94873,6.246262,-5.557906,1.757438,8.260951,-0.030792,-0.07489,0.016617,0.074441,0.03179,-0.016753,0.337898,0.163542,-0.419806,-0.826343,-0.03005,-0.010348
343,97840874255682,0.162888,7.910416,6.255829,-5.533872,1.781954,8.242419,-0.016953,-0.063187,0.013412,0.056313,0.030137,-0.019505,0.337893,0.163329,-0.419718,-0.826431,-0.030049,-0.010346
344,97840879199529,0.171875,7.937958,6.249847,-5.557408,1.767606,8.251791,-0.002029,-0.046143,0.011292,0.033706,0.027577,-0.019085,0.337896,0.163166,-0.419655,-0.826494,-0.030049,-0.010344
345,97840884143377,0.209579,7.936157,6.261826,-5.581375,1.792809,8.238393,0.016083,-0.031219,0.008087,0.010269,0.02638,-0.022302,0.337906,0.163039,-0.419617,-0.826535,-0.030048,-0.010343
346,97840889087225,0.222748,7.930176,6.264221,-5.585477,1.802495,8.229893,0.035248,-0.016312,0.005966,-0.013898,0.026508,-0.025461,0.337922,0.162955,-0.419605,-0.82655,-0.030047,-0.010341
347,97840894031072,0.237106,7.939743,6.232498,-5.602245,1.779536,8.209007,0.052292,-0.003525,0.000626,-0.035113,0.024044,-0.030598,0.337934,0.162917,-0.419628,-0.826541,-0.030046,-0.01034
348,97840898974920,0.217361,7.946335,6.172043,-5.593437,1.721306,8.187561,0.071472,0.007126,-0.002563,-0.056345,0.025102,-0.036889,0.337936,0.162935,-0.419695,-0.826503,-0.030044,-0.010338
349,97840903888250,0.219162,7.936157,6.121155,-5.588624,1.687462,8.14978,0.085312,0.014587,-0.008957,-0.071567,0.022661,-0.043997,0.337925,0.162988,-0.419792,-0.826448,-0.030042,-0.010336
350,97840908832098,0.210175,7.988235,6.033768,-5.62048,1.594794,8.131991,0.099167,0.027374,-0.011093,-0.09044,0.021408,-0.045484,0.33791,0.1631,-0.41994,-0.826357,-0.030038,-0.010332
351,97840913775945,0.182648,7.995407,5.976318,-5.607709,1.537635,8.115758,0.107697,0.0327,-0.014282,-0.100312,0.020179,-0.049013,0.337882,0.163248,-0.420111,-0.826252,-0.030033,-0.010328
352,97840918719793,0.128769,8.009781,5.893707,-5.581829,1.446495,8.103069,0.111954,0.036957,-0.017471,-0.106367,0.017586,-0.050808,0.337838,0.16344,-0.420303,-0.826134,-0.030026,-0.010322
353,97840923633123,0.089874,8.0457,5.813507,-5.581945,1.354947,8.095941,0.113022,0.040146,-0.018539,-0.109359,0.015796,-0.050205,0.337782,0.163663,-0.420516,-0.826005,-0.030014,-0.010312
354,97840928576971,0.077896,8.0439,5.730301,-5.575089,1.288201,8.050195,0.106628,0.036957,-0.018539,-0.102539,0.014397,-0.048553,0.33772,0.163887,-0.420739,-0.825872,-0.029998,-0.010299
355,97840933520818,0.05336,8.052277,5.66806,-5.565828,1.228682,8.029989,0.095978,0.030563,-0.01535,-0.090393,0.015126,-0.044518,0.337655,0.164101,-0.42096,-0.825743,-0.029987,-0.010291
356,97840938434149,0.019836,8.08519,5.648911,-5.566338,1.189456,8.05493,0.079987,0.020981,-0.010025,-0.072168,0.01668,-0.038108,0.33759,0.164291,-0.421164,-0.825628,-0.029973,-0.01028
357,97840943255926,0.001282,8.112732,5.638733,-5.57337,1.165438,8.074094,0.06189,0.01033,-0.005753,-0.051704,0.016964,-0.031767,0.337527,0.164447,-0.421344,-0.825531,-0.029956,-0.010268
358,97840948260809,-0.035233,8.076813,5.640518,-5.522713,1.169131,8.07369,0.042709,-0.005661,-0.001495,-0.026749,0.019023,-0.027946,0.337458,0.164561,-0.42149,-0.825463,-0.029937,-0.010254
359,97840953387762,-0.046005,8.030731,5.661469,-5.48164,1.202256,8.065556,0.024597,-0.022705,0.002762,-0.001836,0.021978,-0.025332,0.337328,0.164588,-0.421627,-0.82544,-0.029918,-0.010239
360,97840958179022,-0.046005,8.0439,5.692596,-5.490434,1.223417,8.091383,0.009689,-0.04187,0.005966,0.022245,0.026316,-0.026367,0.337312,0.164622,-0.421705,-0.8254,-0.0299,-0.010225
361,97840963183904,-0.037018,8.055267,5.733307,-5.502549,1.255603,8.118187,-0.005234,-0.06105,0.010223,0.046353,0.031509,-0.026788,0.337234,0.164556,-0.42177,-0.825412,-0.029884,-0.010213
362,97840968127752,-0.022659,8.0457,5.763824,-5.503554,1.289949,8.124183,-0.019073,-0.072769,0.014481,0.064492,0.034049,-0.023456,0.337163,0.164443,-0.421809,-0.825443,-0.029871,-0.010204
363,97840973071600,-0.014282,8.037308,5.819489,-5.500405,1.34109,8.149356,-0.027603,-0.080231,0.019806,0.075873,0.037895,-0.019962,0.337104,0.164294,-0.421823,-0.82549,-0.02986,-0.010196
364,97840977984930,-0.008896,8.001999,5.814102,-5.477087,1.352647,8.124517,-0.032928,-0.082352,0.020874,0.081183,0.037418,-0.017637,0.337048,0.164132,-0.421824,-0.825545,-0.029852,-0.010191
365,97840982898260,0.015045,7.996613,5.863785,-5.486973,1.403872,8.139547,-0.033997,-0.08342,0.027267,0.082777,0.042574,-0.013917,0.337011,0.163947,-0.421814,-0.825601,-0.029847,-0.010187
366,97840987842108,0.071915,7.976257,5.908676,-5.510224,1.471266,8.124725,-0.03186,-0.07489,0.030457,0.075359,0.042479,-0.008238,0.337,0.163751,-0.421795,-0.825655,-0.029843,-0.010185
367,97840992785955,0.085083,7.963089,5.896103,-5.508262,1.471452,8.104071,-0.025467,-0.062119,0.033661,0.061939,0.042405,-0.002416,0.337009,0.163579,-0.421782,-0.825692,-0.02984,-0.010184
368,97840997699285,0.085678,7.949326,5.876953,-5.497411,1.461543,8.0858,-0.02121,-0.051468,0.033661,0.051485,0.039738,0.001462,0.337026,0.163436,-0.421772,-0.825719,-0.029837,-0.010183
369,97841002612615,0.129974,7.932571,5.920044,-5.515278,1.521549,8.078124,-0.01268,-0.039749,0.031525,0.037185,0.036693,0.002343,0.337057,0.163305,-0.421759,-0.825738,-0.029836,-0.010182
370,97841007556463,0.149124,7.933167,5.932022,-5.528087,1.538975,8.07577,-0.006287,-0.023758,0.032593,0.021504,0.033559,0.008811,0.337108,0.163203,-0.421746,-0.825744,-0.029834,-0.010181
371,97841012500311,0.182037,7.90683,5.92244,-5.532671,1.556299,8.037031,0.002228,-0.014175,0.028336,0.008665,0.029697,0.007201,0.337163,0.16312,-0.421742,-0.82574,-0.029833,-0.01018
372,97841017444158,0.207184,7.934357,5.92424,-5.569236,1.557482,8.040615,0.009689,-0.003525,0.024063,-0.004157,0.024939,0.00679,0.337221,0.163063,-0.421752,-0.825723,-0.029831,-0.010179
373,97841022388006,0.203598,7.937958,5.917648,-5.568999,1.550104,8.040807,0.017136,0.005005,0.021942,-0.015467,0.022798,0.006416,0.337278,0.163034,-0.421771,-0.825695,-0.02983,-0.010178
374,97841027331854,0.203598,7.948135,5.862579,-5.576973,1.502853,8.013922,0.023529,0.011383,0.01767,-0.024558,0.01938,0.004089,0.337328,0.163036,-0.421813,-0.825653,-0.029817,-0.010173
375,97841032245184,0.170074,7.964294,5.873962,-5.564332,1.492436,8.048178,0.023529,0.015656,0.015549,-0.027558,0.015892,0.005339,0.337371,0.163061,-0.421845,-0.825614,-0.029817,-0.010173
376,97841037189031,0.149719,8.004395,5.866776,-5.578312,1.462696,8.078039,0.023529,0.018845,0.013412,-0.029806,0.012843,0.005942,0.337408,0.163105,-0.421882,-0.825571,-0.02981,-0.01017
377,97841042010809,0.144333,7.996613,5.86618,-5.569767,1.464363,8.075399,0.022476,0.019913,0.014481,-0.029774,0.012822,0.007779,0.337448,0.16315,-0.421912,-0.825531,-0.029802,-0.010166
378,97841047015691,0.143738,7.990631,5.838638,-5.566686,1.445804,8.054949,0.019272,0.016708,0.012344,-0.025276,0.011091,0.006407,0.337514,0.163209,-0.421938,-0.825479,-0.029795,-0.010163
379,97841052020574,0.110214,7.996017,5.822479,-5.546534,1.417233,8.067036,0.017136,0.011383,0.011292,-0.020056,0.011562,0.003846,0.337507,0.163222,-0.421977,-0.825459,-0.029788,-0.01016
380,97841056903387,0.155701,7.984039,5.836258,-5.571081,1.453255,8.042522,0.012878,0.006058,0.012344,-0.013278,0.012841,0.003703,0.337525,0.163251,-0.422005,-0.825432,-0.029782,-0.010158
381,97841061847234,0.194611,8.009186,5.836853,-5.616189,1.460583,8.036099,0.008621,-0.000336,0.012344,-0.005773,0.013716,0.002312,0.337552,0.163232,-0.422041,-0.825406,-0.029777,-0.010157
382,97841066791082,0.243103,7.982239,5.906876,-5.630477,1.548911,8.035239,0.002228,-0.006714,0.008087,0.003191,0.010252,-0.000398,0.33758,0.163174,-0.422048,-0.825403,-0.029772,-0.010156
383,97841071765447,0.188034,7.921188,5.908081,-5.547651,1.55175,8.031295,0.00116,-0.015244,0.000626,0.00977,0.007331,-0.009215,0.337577,0.163118,-0.422037,-0.825421,-0.029769,-0.010156
384,97841076678777,0.124588,7.94873,5.90509,-5.520522,1.510601,8.081452,0.00116,-0.022705,-0.0047,0.01487,0.006138,-0.016738,0.337543,0.163079,-0.422028,-0.825447,-0.029767,-0.010157
385,97841081622625,0.129974,7.991821,5.954163,-5.552646,1.533887,8.133473,0.003296,-0.026962,-0.003632,0.016306,0.009668,-0.01979,0.337507,0.163028,-0.422022,-0.825474,-0.029764,-0.010158
386,97841086566473,0.250885,8.025345,6.00145,-5.660645,1.608919,8.115105,0.009689,-0.024826,0.001694,0.010307,0.015759,-0.018934,0.337503,0.162937,-0.422041,-0.825484,-0.029762,-0.01016
387,97841091510320,0.224548,7.939743,6.028976,-5.580654,1.655388,8.096571,0.018204,-0.020569,-0.002563,0.001156,0.014129,-0.023666,0.337492,0.162865,-0.422043,-0.825502,-0.02976,-0.010163
388,97841096454168,0.113205,7.919403,5.937408,-5.487445,1.543134,8.092547,0.026733,-0.019501,-0.008957,-0.005825,0.012105,-0.031539,0.337443,0.162857,-0.422065,-0.825513,-0.029758,-0.010166
389,97841101398016,0.105423,8.02774,5.934418,-5.556907,1.4932,8.158682,0.035248,-0.013107,-0.003632,-0.016307,0.017309,-0.029358,0.337402,0.162875,-0.422122,-0.825496,-0.029756,-0.010169
390,97841106311346,0.130569,8.055862,5.936203,-5.594495,1.495168,8.162022,0.043777,-0.002457,0.010223,-0.029617,0.027634,-0.019652,0.3374,0.162902,-0.422201,-0.825452,-0.029754,-0.010174
391,97841111255193,0.179657,8.039703,5.875153,-5.619656,1.475909,8.088735,0.050171,0.009262,0.020874,-0.042181,0.03404,-0.010035,0.337435,0.162934,-0.422308,-0.825376,-0.029752,-0.010179
392,97841116199041,0.21257,8.030136,5.794357,-5.638379,1.431884,8.016307,0.054428,0.020981,0.02301,-0.053343,0.032686,-0.004266,0.337487,0.162988,-0.422439,-0.825277,-0.02975,-0.010184
393,97841121142889,0.271225,8.015167,5.740479,-5.671123,1.422917,7.942494,0.051224,0.020981,0.024063,-0.051016,0.032201,-0.001882,0.33755,0.163022,-0.422583,-0.825171,-0.029748,-0.010189
394,97841126056219,0.302948,8.057068,5.735687,-5.722826,1.418738,7.946232,0.045898,0.014587,0.02301,-0.042755,0.031779,-0.003316,0.337609,0.163033,-0.422734,-0.825067,-0.029746,-0.010193
395,97841131000066,0.33049,8.091782,5.724915,-5.766253,1.410835,7.944851,0.038452,0.007126,0.018738,-0.032281,0.028305,-0.006096,0.337658,0.163022,-0.422887,-0.824971,-0.029745,-0.010196
396,97841135943914,0.325699,8.078018,5.693192,-5.752796,1.392022,7.92089,0.028854,-0.002457,0.011292,-0.018843,0.022237,-0.010796,0.337683,0.162995,-0.42303,-0.824893,-0.029742,-0.010198
397,97841140887762,0.299362,8.06485,5.646515,-5.724412,1.351275,7.900616,0.015015,-0.009918,0.008087,-0.003763,0.016933,-0.009398,0.337693,0.162959,-0.423155,-0.824832,-0.02974,-0.010199
398,97841145709539,0.273026,8.039703,5.688416,-5.686113,1.386004,7.925689,0.00116,-0.016312,0.004898,0.010586,0.011193,-0.007354,0.337694,0.162905,-0.423235,-0.824801,-0.029738,-0.0102
399,97841150836492,0.224548,8.069641,5.715942,-5.670554,1.37631,7.987,-0.009491,-0.018433,0.002762,0.01968,0.005878,-0.003955,0.337684,0.162854,-0.423285,-0.82479,-0.029736,-0.0102
400,97841155719305,0.146729,8.077423,5.779388,-5.618229,1.391597,8.072583,-0.018005,-0.016312,0.005966,0.024382,0.004021,0.003898,0.337666,0.162816,-0.423292,-0.824801,-0.029736,-0.0102
401,97841160632635,0.15271,8.056473,5.800934,-5.607224,1.420101,8.069895,-0.023331,-0.014175,0.010223,0.0268,0.004344,0.010613,0.337681,0.162783,-0.423284,-0.824805,-0.029735,-0.0102
402,97841165576483,0.145538,8.040298,5.84343,-5.589575,1.457542,8.089838,-0.023331,-0.014175,0.013412,0.026857,0.006919,0.01249,0.337698,0.162732,-0.423254,-0.824824,-0.029735,-0.010201
403,97841170489813,0.121597,8.04509,5.878754,-5.574765,1.47336,8.127065,-0.024399,-0.010986,0.019806,0.025521,0.010315,0.018723,0.337728,0.162686,-0.42321,-0.824843,-0.029735,-0.010201
404,97841175464178,0.115601,8.025345,5.908081,-5.556061,1.501957,8.136296,-0.019073,-0.007782,0.020874,0.019486,0.012083,0.018286,0.337764,0.162646,-0.423161,-0.824862,-0.029734,-0.010201
405,97841180408025,0.161102,8.001404,5.886536,-5.572116,1.513246,8.084638,-0.013748,-0.007782,0.021942,0.015678,0.015177,0.015965,0.337806,0.162595,-0.423131,-0.82487,-0.029734,-0.010201
406,97841185351873,0.173065,8.020554,5.906281,-5.593292,1.526235,8.101178,-0.009491,-0.005661,0.02301,0.011165,0.016946,0.015484,0.337854,0.162546,-0.423109,-0.824871,-0.029734,-0.010201
407,97841190295721,0.177856,8.039108,5.915863,-5.609187,1.528406,8.115252,-0.006287,-0.002457,0.02301,0.006637,0.016964,0.015595,0.337903,0.162506,-0.423093,-0.824867,-0.029734,-0.010201
408,97841195239568,0.180847,8.016357,5.869766,-5.596125,1.502199,8.073149,-0.003098,-0.001389,0.021942,0.003586,0.016998,0.013827,0.33795,0.162474,-0.423091,-0.824856,-0.029734,-0.010201
409,97841200183416,0.182037,8.021149,5.903885,-5.599617,1.528514,8.095415,0.00116,0.001801,0.016617,-0.001786,0.013165,0.010208,0.337988,0.162454,-0.423084,-0.824847,-0.029733,-0.010201
410,97841205127264,0.185043,8.000809,5.88533,-5.587982,1.523497,8.070795,0.002228,0.003937,0.016617,-0.004038,0.012731,0.010872,0.338029,0.162439,-0.423079,-0.824836,-0.029733,-0.010201
411,97841210071111,0.165283,8.004395,5.838638,-5.57713,1.47656,8.056223,0.003296,0.001801,0.01767,-0.003301,0.014914,0.009645,0.338063,0.162432,-0.423089,-0.824818,-0.029732,-0.010202
412,97841214984441,0.182037,8.014572,5.848816,-5.596048,1.488227,8.05882,0.004364,0.002869,0.016617,-0.004829,0.014071,0.00906,0.338099,0.162423,-0.423101,-0.824799,-0.029731,-0.010202
413,97841219897772,0.203598,7.984634,5.80513,-5.591243,1.475008,8.003607,0.00116,-0.001389,0.014481,0.000396,0.012759,0.007073,0.338129,0.1624,-0.423119,-0.824782,-0.029729,-0.010202
414,97841224841619,0.222153,7.983444,5.794357,-5.603427,1.475137,7.986547,-0.003098,-0.005661,0.012344,0.006388,0.011008,0.00566,0.338155,0.162362,-0.423137,-0.82477,-0.029726,-0.010202
415,97841229785467,0.221542,8.028931,5.835052,-5.633325,1.48925,8.037941,-0.006287,-0.006714,0.010223,0.009374,0.008388,0.005557,0.338177,0.162321,-0.423145,-0.824765,-0.029721,-0.010202
416,97841234729315,0.225739,8.011581,5.821289,-5.62387,1.487299,8.01772,-0.010559,-0.00885,0.013412,0.013989,0.010049,0.008545,0.338205,0.162268,-0.423148,-0.824762,-0.029715,-0.010202
417,97841239642645,0.236511,8.000198,5.835052,-5.622737,1.507673,8.013656,-0.013748,-0.00885,0.012344,0.016262,0.007843,0.009682,0.338235,0.162208,-0.423141,-0.824765,-0.029708,-0.010201
418,97841244678045,0.223343,8.017563,5.861389,-5.624278,1.516014,8.047129,-0.013748,-0.007782,0.009155,0.015461,0.004824,0.00843,0.338258,0.162156,-0.423125,-0.824774,-0.029701,-0.0102
419,97841249530340,0.232315,8.059464,5.874557,-5.658981,1.512999,8.075034,-0.013748,-0.00885,0.008087,0.016184,0.004401,0.007172,0.338278,0.162104,-0.423116,-0.824781,-0.029693,-0.010199
420,97841254321600,0.247284,8.048691,5.888916,-5.661409,1.535174,8.0693,-0.013748,-0.007782,0.005966,0.015402,0.002246,0.006549,0.338294,0.162057,-0.423105,-0.824789,-0.029684,-0.010198
421,97841259418035,0.261047,8.073822,5.912872,-5.68787,1.5498,8.090927,-0.009491,-0.002457,0.00383,0.008601,0.000112,0.006066,0.338313,0.162017,-0.423094,-0.824795,-0.029675,-0.010197
422,97841264331365,0.280807,8.069641,5.933212,-5.698254,1.576339,8.089874,-0.002029,0.000732,0.002762,0.001002,0.001074,0.003182,0.338333,0.161975,-0.423092,-0.824796,-0.029666,-0.010196
423,97841269244695,0.257462,8.08519,5.916458,-5.692346,1.546721,8.102218,0.00116,0.001801,-0.001495,-0.002114,-0.001463,-0.000464,0.338343,0.161956,-0.423097,-0.824793,-0.029656,-0.010196
424,97841274188543,0.235916,8.076813,5.886536,-5.671809,1.517353,8.091365,0.006485,0.01033,-0.002563,-0.01189,-0.003605,0.000977,0.338353,0.16197,-0.42311,-0.82478,-0.029646,-0.010197
425,97841279132391,0.206589,8.0858,5.886536,-5.657745,1.501779,8.112256,0.008621,0.020981,-0.000427,-0.02079,-0.005379,0.007319,0.338372,0.162017,-0.423116,-0.824759,-0.029634,-0.010198
426,97841284076238,0.178452,8.113922,5.88414,-5.658334,1.476873,8.142042,0.008621,0.028427,-0.000427,-0.025968,-0.008454,0.011696,0.338393,0.162091,-0.423119,-0.824735,-0.029621,-0.010201
427,97841289020086,0.165283,8.110336,5.901489,-5.647485,1.487124,8.156398,0.006485,0.0327,0.001694,-0.027367,-0.009404,0.016638,0.338423,0.162172,-0.423106,-0.824713,-0.029606,-0.010205
428,97841293963934,0.17366,8.088196,5.920639,-5.639075,1.515442,8.149071,0.006485,0.031631,0.002762,-0.026606,-0.008099,0.016635,0.338458,0.162242,-0.423087,-0.824695,-0.029589,-0.010211
429,97841298907781,0.164688,8.081604,5.915253,-5.629166,1.510205,8.146254,0.005432,0.023102,0.004898,-0.019879,-0.003296,0.013459,0.338487,0.162295,-0.423072,-0.82468,-0.029571,-0.01022
430,97841303851629,0.161102,8.035522,5.902695,-5.595256,1.517663,8.11339,0.005432,0.01033,0.005966,-0.010975,0.00284,0.006579,0.338506,0.162318,-0.423062,-0.824672,-0.029551,-0.010232
431,97841308795477,0.171265,8.047485,5.874557,-5.611322,1.494584,8.098219,0.006485,-0.003525,0.004898,-0.002113,0.008141,-0.00278,0.338507,0.162317,-0.423078,-0.824665,-0.029531,-0.010247
432,97841313739324,0.160492,8.092377,5.862579,-5.634487,1.462385,8.123802,0.007553,-0.016312,0.00383,0.005994,0.013006,-0.011519,0.338488,0.1623,-0.423116,-0.824656,-0.029512,-0.010264
433,97841318652654,0.145538,8.078018,5.827271,-5.613619,1.434249,8.103269,0.010757,-0.024826,0.004898,0.009634,0.018731,-0.017674,0.338457,0.162276,-0.423173,-0.824645,-0.029494,-0.010283
434,97841323596502,0.196411,8.057663,5.810516,-5.634933,1.451642,8.053998,0.013947,-0.032288,0.005966,0.01255,0.024013,-0.023206,0.338427,0.16222,-0.42325,-0.824628,-0.029478,-0.010304
435,97841328540350,0.192825,8.067245,5.785965,-5.638095,1.427741,8.047889,0.016083,-0.033356,0.008087,0.011796,0.027062,-0.023774,0.338398,0.162167,-0.423341,-0.824604,-0.029462,-0.010327
436,97841333484197,0.204788,8.079208,5.737488,-5.654701,1.390531,8.02029,0.017136,-0.026962,0.010223,0.006633,0.026589,-0.019343,0.338378,0.162127,-0.423447,-0.824565,-0.029438,-0.010358
437,97841338397527,0.223938,8.069031,5.708755,-5.660936,1.381674,7.987122,0.019272,-0.019501,0.011292,-6.9e-05,0.025271,-0.01551,0.338369,0.1621,-0.423559,-0.824517,-0.029414,-0.010389
438,97841343188787,0.262848,8.06485,5.640518,-5.686331,1.347174,7.923197,0.018204,-0.014175,0.012344,-0.002983,0.023474,-0.011169,0.338371,0.162076,-0.423686,-0.824455,-0.029391,-0.010422
439,97841348224188,0.283798,8.068436,5.633347,-5.703402,1.351266,7.909499,0.016083,-0.002457,0.010223,-0.009646,0.01604,-0.004344,0.338385,0.162069,-0.423806,-0.82439,-0.029369,-0.010453
440,97841353045965,0.279007,8.088196,5.631546,-5.713845,1.342261,7.922212,0.01181,0.005005,0.008087,-0.011805,0.009446,0.00116,0.338431,0.162094,-0.423905,-0.824315,-0.029348,-0.010484
441,97841358081365,0.258652,8.089386,5.592041,-5.70047,1.303178,7.910905,0.007553,0.012451,0.007019,-0.013945,0.00373,0.007277,0.338427,0.162103,-0.424,-0.824266,-0.029329,-0.010513
442,97841363208318,0.283203,8.097168,5.626755,-5.723104,1.340478,7.921737,0.004364,0.018845,0.005966,-0.016122,-0.001089,0.012193,0.338459,0.162138,-0.424081,-0.824204,-0.029311,-0.010538
443,97841368091131,0.258057,8.087585,5.604614,-5.699285,1.317732,7.916379,-0.002029,0.020981,0.005966,-0.013017,-0.004651,0.016995,0.338489,0.162182,-0.424147,-0.824149,-0.029296,-0.010562
444,97841373004461,0.25267,8.067245,5.603409,-5.681951,1.324321,7.905947,-0.005234,0.025238,0.002762,-0.013742,-0.010336,0.019399,0.338518,0.162234,-0.424196,-0.824101,-0.029281,-0.010582
445,97841377917791,0.273621,8.075623,5.623764,-5.703064,1.347464,7.910549,-0.008423,0.026306,0.001694,-0.012218,-0.012976,0.02117,0.338553,0.162279,-0.424237,-0.824058,-0.029268,-0.010602
446,97841382831121,0.244293,8.061249,5.668655,-5.671859,1.37802,7.94406,-0.014816,0.026306,0.001694,-0.00763,-0.015662,0.024716,0.338587,0.162321,-0.424244,-0.824031,-0.029255,-0.01062
447,97841387805486,0.232925,8.072021,5.707565,-5.671274,1.400564,7.978911,-0.019073,0.026306,0.001694,-0.004578,-0.01745,0.027077,0.338624,0.162362,-0.424231,-0.824014,-0.029244,-0.010637
448,97841392749334,0.206589,8.102554,5.74826,-5.673875,1.409855,8.034679,-0.02121,0.028427,0.001694,-0.004523,-0.01922,0.029512,0.33866,0.162412,-0.424205,-0.824004,-0.029234,-0.010654
449,97841397693182,0.222153,8.100754,5.782379,-5.683955,1.444745,8.044428,-0.019073,0.025238,0.00383,-0.0038,-0.015284,0.027701,0.338701,0.162445,-0.424178,-0.823994,-0.029225,-0.01067
450,97841402637029,0.178452,8.102554,5.805725,-5.654419,1.444309,8.082767,-0.020142,0.025238,0.008087,-0.002953,-0.012291,0.030794,0.338745,0.162486,-0.424138,-0.823988,-0.029217,-0.010686
451,97841407580877,0.203598,8.086395,5.854813,-5.661015,1.500797,8.087681,-0.02121,0.022049,0.010223,7.1e-05,-0.009705,0.030763,0.338798,0.162501,-0.424087,-0.82399,-0.029209,-0.010702
452,97841412524725,0.198807,8.051086,5.830856,-5.634034,1.493644,8.055127,-0.016953,0.016708,0.011292,0.000753,-0.004858,0.025882,0.338845,0.16251,-0.424048,-0.823989,-0.029203,-0.010719
453,97841417468572,0.195816,8.054672,5.831467,-5.634791,1.491329,8.058984,-0.01268,0.012451,0.011292,0.000649,-0.001313,0.021004,0.338886,0.162515,-0.424022,-0.823985,-0.029197,-0.010737
454,97841422381902,0.225739,8.04509,5.841034,-5.649592,1.515618,8.042205,-0.011627,0.011383,0.012344,0.000657,0.000418,0.020409,0.338932,0.162505,-0.423999,-0.823979,-0.029192,-0.010752
455,97841427325750,0.170074,8.081604,5.821884,-5.63575,1.461961,8.083102,-0.010559,0.007126,0.01767,0.002959,0.006923,0.02044,0.338973,0.162507,-0.423989,-0.823967,-0.029189,-0.010768
456,97841432269598,0.199402,8.062454,5.832062,-5.64334,1.490562,8.061444,-0.011627,0.006058,0.01767,0.004469,0.006911,0.020405,0.339019,0.162492,-0.423975,-0.823959,-0.029185,-0.010843
457,97841437213445,0.180252,8.037308,5.821884,-5.612509,1.48462,8.051137,-0.013748,0.007126,0.018738,0.005267,0.006442,0.02284,0.339066,0.162483,-0.423952,-0.823953,-0.029184,-0.010879
458,97841442157293,0.203598,8.054077,5.811111,-5.641206,1.479052,8.041628,-0.015884,0.006058,0.020874,0.007586,0.007707,0.024653,0.33912,0.162463,-0.423935,-0.823943,-0.029184,-0.010879
459,97841446948553,0.207779,8.073227,5.841644,-5.656939,1.497625,8.068531,-0.020142,0.005005,0.020874,0.011373,0.006343,0.026399,0.339175,0.162435,-0.423909,-0.82394,-0.029185,-0.010913
460,97841451953436,0.195816,8.079803,5.849411,-5.652985,1.496058,8.083486,-0.024399,0.001801,0.020874,0.016658,0.00586,0.026879,0.339247,0.16241,-0.423868,-0.823936,-0.029186,-0.010944
461,97841456927801,0.215561,8.039703,5.874557,-5.638216,1.540767,8.06413,-0.022278,-0.002457,0.018738,0.018062,0.006771,0.02194,0.33927,0.162361,-0.423842,-0.823949,-0.029188,-0.010971
462,97841461780096,0.225143,8.04808,5.872162,-5.650406,1.538942,8.062825,-0.023331,-0.00885,0.018738,0.023273,0.008947,0.018764,0.339312,0.162296,-0.423805,-0.823964,-0.02919,-0.010993
463,97841466784979,0.222748,8.058258,5.896698,-5.654572,1.553081,8.085167,-0.02121,-0.012054,0.016617,0.023944,0.009438,0.014454,0.339347,0.162225,-0.423771,-0.823981,-0.029192,-0.011011
464,97841471759344,0.254471,8.082199,5.889526,-5.693102,1.550805,8.078165,-0.015884,-0.016312,0.015549,0.023072,0.012565,0.008364,0.339377,0.162143,-0.423764,-0.823988,-0.029194,-0.011024
465,97841476703191,0.290985,8.097763,5.878754,-5.729201,1.551433,8.061488,-0.01268,-0.015244,0.015549,0.020033,0.013475,0.007213,0.339412,0.162057,-0.423773,-0.823987,-0.029195,-0.011033
466,97841481616522,0.326889,8.072632,5.875153,-5.736276,1.574506,8.025449,-0.007355,-0.013107,0.012344,0.014662,0.012252,0.003629,0.339446,0.161969,-0.423791,-0.823981,-0.029196,-0.011039
467,97841486560369,0.337662,8.059464,5.849411,-5.734351,1.564453,7.997143,-0.002029,-0.006714,0.010223,0.006347,0.010162,0.003189,0.339482,0.161899,-0.423819,-0.823965,-0.029197,-0.011043
468,97841491504217,0.377167,8.058258,5.807526,-5.761753,1.548886,7.950364,0.002228,0.000732,0.004898,-0.002004,0.0046,0.002077,0.339509,0.161841,-0.423866,-0.823941,-0.029197,-0.011046
469,97841496448065,0.390945,8.04509,5.785965,-5.762217,1.543841,7.922569,0.006485,0.01033,-0.001495,-0.011879,-0.002706,0.001606,0.339526,0.161806,-0.423918,-0.823914,-0.029198,-0.011047
470,97841501391912,0.377777,8.08519,5.768021,-5.781297,1.508665,7.942518,0.007553,0.025238,-0.007889,-0.023167,-0.013534,0.006029,0.339556,0.161826,-0.423964,-0.823874,-0.029198,-0.011049
471,97841506335760,0.35083,8.060654,5.758438,-5.746032,1.500528,7.936519,0.007553,0.039093,-0.016418,-0.033003,-0.026107,0.009168,0.339578,0.161892,-0.423989,-0.823839,-0.029199,-0.01105
472,97841511279608,0.312531,8.103149,5.750061,-5.749966,1.461049,7.976537,0.005432,0.050797,-0.017471,-0.039663,-0.03265,0.016611,0.339603,0.161998,-0.424005,-0.8238,-0.029199,-0.011051
473,97841516192938,0.229324,8.073822,5.778793,-5.671539,1.461039,8.020758,-0.000961,0.056137,-0.024933,-0.038959,-0.043574,0.018906,0.33961,0.162139,-0.423975,-0.823784,-0.029199,-0.011052
474,97841521136785,0.158707,8.043304,5.796753,-5.602036,1.457484,8.050789,-0.004166,0.058258,-0.026001,-0.038162,-0.046665,0.021294,0.33961,0.162304,-0.423915,-0.823783,-0.0292,-0.011053
475,97841526080633,0.109619,8.070831,5.850616,-5.587881,1.467783,8.124115,-0.007355,0.05719,-0.026001,-0.03513,-0.04758,0.022424,0.339603,0.162475,-0.423834,-0.823794,-0.0292,-0.011055
476,97841531024481,0.061737,8.053467,5.851807,-5.544436,1.454102,8.139446,-0.011627,0.052933,-0.022797,-0.029035,-0.045053,0.024166,0.339593,0.162646,-0.423739,-0.823813,-0.0292,-0.011055
477,97841535968328,0.043777,8.089981,5.863785,-5.559517,1.43969,8.17635,-0.01268,0.044418,-0.020676,-0.022299,-0.040294,0.020986,0.339576,0.162803,-0.423651,-0.823834,-0.029201,-0.011059
478,97841540912176,-0.009491,8.094772,5.914658,-5.526018,1.454689,8.23745,-0.010559,0.028427,-0.014282,-0.012538,-0.02767,0.014167,0.339549,0.162935,-0.423564,-0.823864,-0.029202,-0.011064
479,97841545825506,0.03241,8.116318,5.975708,-5.571375,1.51119,8.262012,-0.009491,0.014587,-0.010025,-0.003567,-0.018097,0.007947,0.339524,0.163014,-0.423486,-0.823899,-0.029203,-0.01107
480,97841550708318,0.033005,8.128891,5.918259,-5.582298,1.458241,8.235122,-0.007355,-0.000336,-0.006821,0.005375,-0.008475,-0.000119,0.339475,0.163054,-0.42343,-0.82394,-0.029205,-0.011077
481,97841555621649,0.071915,8.139069,5.893707,-5.618351,1.449975,8.204696,-0.004166,-0.013107,-0.002563,0.012078,0.00156,-0.006884,0.339456,0.163093,-0.423404,-0.823953,-0.029208,-0.011088
482,97841560596014,0.101837,8.137863,5.911667,-5.638205,1.477182,8.198267,-0.004166,-0.020569,0.001694,0.017362,0.008069,-0.008761,0.339424,0.163077,-0.423404,-0.82397,-0.029213,-0.011102
483,97841565539861,0.144333,8.151642,5.881744,-5.67806,1.465451,8.165603,9.2e-05,-0.023758,0.00383,0.016574,0.0129,-0.011747,0.339397,0.163046,-0.423433,-0.823972,-0.029219,-0.01112
484,97841570514227,0.168274,8.165405,5.845825,-5.704843,1.441679,8.13954,0.005432,-0.01738,0.005966,0.00834,0.014254,-0.009717,0.33938,0.163027,-0.423485,-0.823956,-0.029226,-0.011142
485,97841575458074,0.164093,8.160614,5.841034,-5.698302,1.43893,8.136284,0.004364,-0.00885,0.011292,0.003258,0.014605,-0.000983,0.339383,0.163021,-0.423529,-0.823934,-0.029233,-0.011168
486,97841580401922,0.21376,8.184555,5.797943,-5.751233,1.416575,8.097249,0.002228,0.001801,0.013412,-0.002599,0.011044,0.007705,0.339406,0.163021,-0.423584,-0.823896,-0.029241,-0.011197
487,97841585345770,0.221542,8.172592,5.835648,-5.74807,1.456461,8.107625,0.00116,0.014587,0.015549,-0.01071,0.007073,0.017064,0.339452,0.163037,-0.423615,-0.823858,-0.029249,-0.011227
488,97841590289617,0.220947,8.155228,5.854813,-5.735827,1.479984,8.108345,0.00116,0.02417,0.019806,-0.017315,0.006584,0.025193,0.339518,0.163064,-0.42363,-0.823817,-0.029255,-0.011259
489,97841595233465,0.228134,8.119919,5.842834,-5.717228,1.488832,8.075919,0.00116,0.02417,0.01767,-0.017357,0.004859,0.023935,0.339582,0.16309,-0.423641,-0.82378,-0.029262,-0.011291
490,97841600146795,0.243698,8.067245,5.896103,-5.691098,1.560595,8.067208,0.00116,0.022049,0.015549,-0.015919,0.004016,0.021441,0.339647,0.163097,-0.42363,-0.823758,-0.029269,-0.011323
491,97841605060125,0.229324,8.06485,5.928421,-5.678878,1.582003,8.092477,0.005432,0.016708,0.012344,-0.015313,0.005417,0.014043,0.339697,0.163101,-0.423619,-0.823742,-0.029276,-0.011356
492,97841610003973,0.194611,8.073227,5.933807,-5.66001,1.568435,8.119685,0.005432,0.008194,0.010223,-0.009412,0.007195,0.007797,0.339729,0.163103,-0.423609,-0.823734,-0.029283,-0.01139
493,97841614947820,0.162888,8.065445,5.903885,-5.632499,1.534343,8.115081,0.009689,-0.000336,0.008087,-0.006548,0.010762,-0.000835,0.339738,0.163107,-0.423617,-0.823725,-0.029291,-0.011425
494,97841619891668,0.192825,8.052277,5.879944,-5.644897,1.533465,8.076739,0.01181,-0.006714,0.004898,-0.003676,0.011693,-0.007635,0.339738,0.163095,-0.423641,-0.823715,-0.0293,-0.011463
495,97841624835516,0.21077,8.030731,5.88533,-5.642164,1.554801,8.057468,0.016083,-0.007782,0.004898,-0.00599,0.013932,-0.010641,0.33974,0.163075,-0.423671,-0.823703,-0.029309,-0.011504
496,97841629748846,0.223938,8.015762,5.856003,-5.641227,1.54358,8.024297,0.018204,-0.006714,0.004898,-0.008254,0.014388,-0.011195,0.339742,0.163056,-0.423712,-0.823685,-0.029317,-0.011541
497,97841634692693,0.259857,8.050476,5.848221,-5.69073,1.539456,8.020289,0.022476,-0.005661,0.00383,-0.012068,0.014892,-0.013582,0.339747,0.163036,-0.423773,-0.823655,-0.029325,-0.011582
498,97841639636541,0.280807,8.061859,5.842834,-5.713333,1.540884,8.012155,0.027802,0.000732,0.00383,-0.020342,0.014516,-0.012793,0.339758,0.163028,-0.423847,-0.823614,-0.029333,-0.011627
499,97841644458318,0.299957,8.042694,5.817688,-5.713917,1.537987,7.975344,0.027802,0.007126,-0.002563,-0.024928,0.006723,-0.012794,0.339766,0.163033,-0.423916,-0.823574,-0.029341,-0.011675
500,97841649463201,0.327499,8.040909,5.779388,-5.733061,1.521338,7.936139,0.032059,0.014587,-0.003632,-0.033203,0.004596,-0.011409,0.339781,0.163053,-0.424003,-0.823519,-0.029349,-0.011727
501,97841654315496,0.362808,8.073227,5.752457,-5.781397,1.503473,7.91924,0.03418,0.019913,-0.008957,-0.038543,-0.001001,-0.012588,0.339792,0.163083,-0.424105,-0.823456,-0.029356,-0.011783
502,97841659411932,0.334671,8.049286,5.723724,-5.74553,1.480062,7.903307,0.028854,0.025238,-0.014282,-0.038551,-0.009735,-0.00962,0.339795,0.16314,-0.424189,-0.8234,-0.029362,-0.011843
503,97841664294744,0.280212,8.06485,5.748856,-5.71784,1.472325,7.956647,0.022476,0.031631,-0.017471,-0.038509,-0.017621,-0.004183,0.339793,0.163221,-0.42424,-0.823359,-0.029367,-0.011904
504,97841669238592,0.253876,8.084595,5.745865,-5.713945,1.451684,7.980193,0.016083,0.0327,-0.019608,-0.034719,-0.022482,-0.001249,0.339785,0.163313,-0.424278,-0.823324,-0.029371,-0.011966
505,97841674182440,0.217361,8.042099,5.779984,-5.658654,1.481533,7.994714,0.009689,0.029495,-0.018539,-0.027883,-0.022999,0.001056,0.339776,0.163397,-0.424282,-0.823309,-0.029375,-0.012026
506,97841679126287,0.179047,8.010376,5.800934,-5.60966,1.494971,8.00911,0.004364,0.019913,-0.018539,-0.01738,-0.021322,-0.001607,0.339756,0.163464,-0.424266,-0.823313,-0.029378,-0.012085
507,97841684070135,0.149719,8.028336,5.788971,-5.601903,1.465137,8.028744,9.2e-05,0.003937,-0.017471,-0.003147,-0.015718,-0.007986,0.339716,0.163507,-0.424258,-0.823324,-0.029382,-0.012141
508,97841689013983,0.147324,8.033722,5.80452,-5.603511,1.474093,8.04255,0.002228,-0.012054,-0.01535,0.006529,-0.006559,-0.017327,0.339664,0.163517,-0.424265,-0.823341,-0.029387,-0.012193
509,97841693957830,0.156311,8.015167,5.820694,-5.595812,1.498015,8.036832,-0.000961,-0.02803,-0.011093,0.020042,0.002087,-0.022442,0.339608,0.16348,-0.424273,-0.823367,-0.029392,-0.012241
510,97841698871160,0.159302,8.015762,5.797943,-5.597428,1.480071,8.023221,-0.003098,-0.040802,-0.013214,0.03044,0.004702,-0.030006,0.339534,0.16342,-0.424294,-0.823398,-0.029399,-0.012284
511,97841703815008,0.199402,8.043304,5.790161,-5.643636,1.479105,8.013869,-0.003098,-0.048264,-0.013214,0.035638,0.007758,-0.0344,0.339458,0.163333,-0.424335,-0.823426,-0.029407,-0.012323
512,97841708789373,0.225143,8.019958,5.797348,-5.643587,1.50496,7.991539,-0.003098,-0.0504,-0.014282,0.037098,0.00777,-0.036292,0.339382,0.163232,-0.424373,-0.823458,-0.029417,-0.012358
513,97841713733221,0.245483,8.018753,5.800934,-5.655272,1.516705,7.983044,9.2e-05,-0.046143,-0.016418,0.031793,0.00564,-0.036826,0.339309,0.163137,-0.424415,-0.823485,-0.029428,-0.012389
514,97841718677068,0.226334,8.013962,5.753647,-5.637635,1.472311,7.964208,0.002228,-0.036545,-0.018539,0.023522,0.00089,-0.033618,0.339235,0.163077,-0.424462,-0.823503,-0.029439,-0.012416
515,97841723620916,0.209579,8.020554,5.758438,-5.629241,1.466457,7.980851,0.005432,-0.023758,-0.019608,0.012287,-0.003866,-0.028505,0.339168,0.163053,-0.424502,-0.823515,-0.02945,-0.012437
516,97841728564764,0.19162,8.012772,5.76503,-5.61079,1.467442,7.990152,0.009689,-0.004593,-0.020676,-0.004144,-0.010793,-0.020219,0.339115,0.163078,-0.424528,-0.823519,-0.029475,-0.012465
517,97841733508611,0.156906,8.004395,5.778793,-5.580488,1.467372,8.012144,0.012878,0.009262,-0.019608,-0.016063,-0.014265,-0.013213,0.339074,0.163142,-0.424538,-0.823518,-0.029499,-0.012489
518,97841738421941,0.156906,8.007385,5.775803,-5.583591,1.463985,8.011432,0.018204,0.017776,-0.016418,-0.025752,-0.012936,-0.009297,0.339045,0.163223,-0.424555,-0.823505,-0.029524,-0.012511
519,97841743365789,0.177261,8.013367,5.736298,-5.604137,1.438809,7.979605,0.021408,0.022049,-0.01535,-0.031004,-0.01248,-0.007941,0.339023,0.163313,-0.42459,-0.823478,-0.029549,-0.012531
520,97841748248602,0.164093,7.98584,5.684219,-5.577638,1.403335,7.93924,0.022476,0.020981,-0.01535,-0.031023,-0.011598,-0.009166,0.339006,0.163412,-0.424633,-0.823443,-0.029573,-0.012551
521,97841753314520,0.162888,8.000809,5.623169,-5.589139,1.347933,7.912276,0.02034,0.017776,-0.016418,-0.027276,-0.012052,-0.010489,0.338965,0.163496,-0.424678,-0.82342,-0.029598,-0.012571
522,97841758197332,0.19043,8.013962,5.641724,-5.61846,1.370104,7.91484,0.015015,0.014587,-0.014282,-0.021195,-0.011252,-0.008147,0.338933,0.163578,-0.424733,-0.823389,-0.029624,-0.012591
523,97841763110662,0.209579,8.034317,5.624359,-5.646973,1.356638,7.905621,0.005432,0.008194,-0.014282,-0.009869,-0.012653,-0.006568,0.338906,0.163625,-0.424786,-0.823363,-0.029649,-0.012612
524,97841768023992,0.174866,8.022949,5.592041,-5.614839,1.320956,7.899228,-0.005234,-0.001389,-0.017471,0.004398,-0.015784,-0.008129,0.338859,0.163661,-0.424826,-0.823354,-0.029674,-0.012633
525,97841772967840,0.176651,8.00798,5.577072,-5.605871,1.315665,7.880732,-0.016953,-0.005661,-0.017471,0.015778,-0.018944,-0.004111,0.338812,0.163679,-0.424848,-0.823359,-0.0297,-0.012655
526,97841777911688,0.21138,8.010376,5.619568,-5.63137,1.363311,7.887927,-0.02121,-0.006714,-0.019608,0.019525,-0.022026,-0.003609,0.33877,0.163676,-0.424853,-0.823374,-0.029725,-0.012679
527,97841782855535,0.178452,8.022949,5.639328,-5.61603,1.359592,7.925487,-0.028671,-0.006714,-0.018539,0.024896,-0.024282,0.001173,0.338728,0.163676,-0.424837,-0.8234,-0.029751,-0.012704
528,97841787799383,0.165878,8.024139,5.710556,-5.606627,1.410103,7.975087,-0.036118,-0.002457,-0.017471,0.02729,-0.028277,0.008452,0.338697,0.163674,-0.424781,-0.823441,-0.029779,-0.012731
529,97841792712713,0.159897,8.006195,5.757843,-5.58929,1.451275,7.995692,-0.039322,0.001801,-0.019608,0.026585,-0.033094,0.011488,0.33867,0.163676,-0.424698,-0.823495,-0.029809,-0.012761
530,97841797656561,0.144928,7.994812,5.774002,-5.570876,1.460566,8.006823,-0.040375,0.006058,-0.018539,0.024396,-0.034414,0.015201,0.33865,0.163686,-0.4246,-0.823552,-0.02984,-0.012792
531,97841802600408,0.105423,7.995407,5.78418,-5.543401,1.449737,8.035136,-0.040375,0.003937,-0.01535,0.025935,-0.03096,0.015816,0.338627,0.163701,-0.424499,-0.823611,-0.029872,-0.012824
532,97841807513738,0.09465,8.023544,5.820694,-5.555074,1.460862,8.079218,-0.041443,-0.001389,-0.013214,0.030452,-0.027491,0.014524,0.338602,0.163704,-0.424395,-0.823674,-0.029907,-0.012858
533,97841812457586,0.096451,8.018158,5.899094,-5.551463,1.524609,8.121347,-0.039322,-0.006714,-0.012146,0.032663,-0.023551,0.01083,0.338578,0.163688,-0.424278,-0.823747,-0.029943,-0.012893
534,97841817431951,0.13237,8.00499,5.913467,-5.567618,1.554004,8.102661,-0.038254,-0.012054,-0.013214,0.035601,-0.021774,0.006461,0.338553,0.163646,-0.424166,-0.823823,-0.029979,-0.012927
535,97841822375799,0.105423,7.996613,5.890121,-5.542595,1.524531,8.099746,-0.038254,-0.018433,-0.01535,0.04001,-0.020877,0.001449,0.338511,0.163606,-0.424062,-0.823902,-0.030016,-0.012962
536,97841827319647,0.13176,8.017563,5.937408,-5.574574,1.562401,8.12616,-0.038254,-0.025894,-0.016418,0.04519,-0.018668,-0.003574,0.338466,0.16354,-0.423958,-0.823987,-0.030053,-0.012995
537,97841832263494,0.125778,8.04689,5.940994,-5.589892,1.548119,8.149851,-0.035049,-0.02803,-0.016418,0.044379,-0.01644,-0.006623,0.338415,0.163476,-0.423868,-0.824067,-0.030092,-0.013024
538,97841837207342,0.124588,8.048691,5.946381,-5.589394,1.548637,8.155781,-0.035049,-0.029099,-0.01535,0.045143,-0.015129,-0.006633,0.338364,0.163409,-0.423779,-0.824147,-0.030131,-0.01305
539,97841842120672,0.113815,8.030731,5.948181,-5.568587,1.550308,8.153148,-0.03186,-0.024826,-0.018539,0.039826,-0.018125,-0.007776,0.33831,0.163359,-0.423686,-0.824227,-0.030168,-0.013074
540,97841847064520,0.138351,8.058258,5.953568,-5.604875,1.551226,8.159584,-0.028671,-0.018433,-0.019608,0.03307,-0.020282,-0.006425,0.338262,0.16332,-0.423603,-0.824298,-0.030203,-0.013094
541,97841851855779,0.140747,8.08699,5.951172,-5.626495,1.536417,8.174208,-0.025467,-0.010986,-0.018539,0.025608,-0.02114,-0.003204,0.338222,0.163299,-0.423529,-0.824356,-0.030235,-0.013111
542,97841856891180,0.122787,8.078018,5.96553,-5.607371,1.542033,8.187587,-0.02121,-0.000336,-0.018539,0.015143,-0.023746,0.000686,0.33818,0.163302,-0.423447,-0.824415,-0.030263,-0.013125
543,97841861835027,0.130569,8.076813,5.945786,-5.613355,1.528101,8.170646,-0.014816,0.009262,-0.019608,0.003858,-0.02589,0.002143,0.338161,0.163341,-0.423368,-0.824455,-0.030287,-0.013136
544,97841866778875,0.123978,8.058258,5.96553,-5.596346,1.547309,8.174667,-0.009491,0.014587,-0.018539,-0.00365,-0.024992,0.002938,0.338141,0.163386,-0.423293,-0.824493,-0.030309,-0.013144
545,97841871722723,0.104233,8.06485,5.96434,-5.588069,1.533995,8.188185,-0.003098,0.020981,-0.016418,-0.012651,-0.023239,0.004386,0.338125,0.163454,-0.423227,-0.82452,-0.030327,-0.013151
546,97841876666570,0.071915,8.02774,5.915253,-5.541428,1.494925,8.154615,9.2e-05,0.02417,-0.01535,-0.01714,-0.022358,0.005111,0.338107,0.163544,-0.423167,-0.82454,-0.030343,-0.013155
547,97841881610418,0.07431,8.069031,5.915863,-5.573438,1.478434,8.176988,9.2e-05,0.025238,-0.013214,-0.017847,-0.021075,0.006991,0.338094,0.163635,-0.423116,-0.824553,-0.030356,-0.013159
548,97841886554266,0.049164,8.069031,5.881134,-5.557511,1.438965,8.16963,-0.002029,0.022049,-0.011093,-0.014069,-0.018933,0.007544,0.338077,0.163729,-0.423071,-0.824565,-0.030367,-0.013161
549,97841891498113,0.022232,8.069031,5.908676,-5.539162,1.44902,8.200018,-0.000961,0.016708,-0.006821,-0.011049,-0.012826,0.006326,0.33806,0.163813,-0.423024,-0.82458,-0.030376,-0.013163
550,97841896441961,0.039597,8.070831,5.859589,-5.554425,1.415481,8.162071,0.002228,0.005005,-0.003632,-0.00514,-0.004073,-0.000439,0.338032,0.16387,-0.423011,-0.824586,-0.030384,-0.013165
551,97841901355291,0.040787,8.039703,5.844635,-5.53438,1.416247,8.134073,-0.004166,-0.005661,-0.001495,0.006908,-0.000612,-0.001884,0.338016,0.163904,-0.42299,-0.824597,-0.030391,-0.013166
552,97841906299139,0.027618,8.050476,5.872757,-5.532088,1.428115,8.164354,-0.010559,-0.013107,0.002762,0.016746,0.003234,-0.000192,0.337991,0.163909,-0.422959,-0.824622,-0.030397,-0.013167
553,97841911242986,0.043777,8.069031,5.850021,-5.55658,1.408084,8.153262,-0.015884,-0.022705,0.005966,0.027299,0.007566,-0.000977,0.337966,0.163886,-0.42294,-0.824647,-0.030402,-0.013168
554,97841916186834,0.062332,8.053467,5.880539,-5.557831,1.445863,8.152479,-0.02121,-0.029099,0.007019,0.035588,0.008834,-0.00115,0.337943,0.163832,-0.422906,-0.824684,-0.030405,-0.013169
555,97841921130682,0.090469,8.06604,5.887726,-5.585639,1.457133,8.149344,-0.023331,-0.033356,0.004898,0.04004,0.007994,-0.003721,0.337917,0.163762,-0.422875,-0.824724,-0.030408,-0.01317
556,97841926044012,0.112015,8.049286,5.927231,-5.587538,1.503661,8.151931,-0.026535,-0.036545,0.008087,0.044609,0.01055,-0.001939,0.337902,0.163666,-0.422831,-0.824772,-0.030411,-0.013172
557,97841930987859,0.116806,8.068436,5.94339,-5.602827,1.509457,8.171113,-0.025467,-0.034424,0.007019,0.04235,0.009256,-0.001921,0.337887,0.163575,-0.422788,-0.824819,-0.030414,-0.013173
558,97841935931707,0.128769,8.067245,5.963745,-5.609112,1.530041,8.176802,-0.025467,-0.031219,0.008087,0.040137,0.008791,0.000585,0.33788,0.163484,-0.422738,-0.824865,-0.030415,-0.013174
559,97841940875555,0.143738,8.091782,6.02121,-5.635031,1.571115,8.217693,-0.023331,-0.024826,0.008087,0.034156,0.007036,0.003148,0.337883,0.163398,-0.422678,-0.824911,-0.030417,-0.013176
560,97841945697332,0.137146,8.058853,6.015213,-5.606816,1.57575,8.199233,-0.018005,-0.019501,0.005966,0.026593,0.005349,0.002065,0.337886,0.163332,-0.42262,-0.824954,-0.03042,-0.013179
561,97841950671697,0.121597,8.037918,6.00145,-5.580878,1.565547,8.187991,-0.01268,-0.014175,0.005966,0.019064,0.005375,0.002235,0.337889,0.163284,-0.422565,-0.82499,-0.030422,-0.013183
562,97841955493475,0.125183,8.02713,6.031372,-5.575388,1.594504,8.197597,-0.007355,-0.007782,0.005966,0.010792,0.004958,0.003033,0.337904,0.163253,-0.422505,-0.825021,-0.030426,-0.01319
563,97841960528875,0.128769,7.98764,6.013428,-5.550791,1.596953,8.16203,0.00116,-0.003525,0.00383,0.00168,0.005041,-0.000453,0.337913,0.163234,-0.422457,-0.825045,-0.03043,-0.0132
564,97841965533758,0.134155,8.028931,5.998459,-5.583726,1.56974,8.174423,0.01181,-0.000336,0.00383,-0.008188,0.008188,-0.004491,0.337918,0.163234,-0.422442,-0.825051,-0.030434,-0.013211
565,97841970477606,0.117996,8.011581,5.98349,-5.560612,1.55793,8.164189,0.017136,0.002869,0.002762,-0.01426,0.008232,-0.006196,0.33792,0.163251,-0.422432,-0.825052,-0.030439,-0.013226
566,97841975421453,0.130569,8.02774,5.923035,-5.582193,1.508308,8.130697,0.023529,0.005005,0.00383,-0.02032,0.010891,-0.007862,0.337922,0.163281,-0.422457,-0.825033,-0.030443,-0.013242
567,97841980365301,0.144928,8.031921,5.90329,-5.595895,1.497614,8.113247,0.027802,0.002869,0.00383,-0.021904,0.013568,-0.011488,0.337921,0.163307,-0.4225,-0.825006,-0.030447,-0.013258
568,97841985309149,0.106033,8.022354,5.853012,-5.562416,1.445794,8.099158,0.030991,0.001801,0.002762,-0.023468,0.014484,-0.014518,0.337906,0.163352,-0.422556,-0.824974,-0.030451,-0.013274
569,97841990252996,0.100037,8.0439,5.797943,-5.574379,1.391472,8.082116,0.033127,0.002869,0.00383,-0.025728,0.015796,-0.014452,0.33789,0.163411,-0.422634,-0.824929,-0.030453,-0.01329
570,97841995196844,0.107819,8.015762,5.774597,-5.561091,1.389097,8.047033,0.029922,0.002869,0.005966,-0.023391,0.016175,-0.011417,0.337881,0.163461,-0.422708,-0.824885,-0.030454,-0.013303
571,97842000140691,0.09465,8.048691,5.76741,-5.575015,1.365651,8.068924,0.023529,0.002869,0.009155,-0.018748,0.01607,-0.005992,0.337876,0.163511,-0.422777,-0.824841,-0.030455,-0.013314
572,97842005054022,0.120987,8.058853,5.779388,-5.601011,1.383464,8.066955,0.016083,0.001801,0.010223,-0.01264,0.014255,-0.001857,0.337881,0.163542,-0.422834,-0.824804,-0.030455,-0.013322
573,97842009997869,0.126373,8.073227,5.769806,-5.615177,1.373277,8.066441,0.009689,0.001801,0.013412,-0.007997,0.014153,0.003572,0.337895,0.163564,-0.422884,-0.824768,-0.030454,-0.013329
574,97842014941717,0.140747,8.047485,5.72731,-5.60818,1.356888,8.018169,0.003296,-0.001389,0.016617,-0.001134,0.015385,0.007136,0.337915,0.163568,-0.422935,-0.824733,-0.030453,-0.013334
575,97842019885565,0.113815,8.079208,5.772797,-5.610199,1.370075,8.078386,-0.002029,-0.002457,0.01767,0.00345,0.014447,0.010087,0.337935,0.163572,-0.422965,-0.824709,-0.030452,-0.01334
576,97842024798895,0.125183,8.035522,5.810516,-5.587186,1.42368,8.068701,-0.008423,-0.005661,0.018738,0.010289,0.013956,0.012388,0.337963,0.163551,-0.422967,-0.824701,-0.030451,-0.013344
577,97842029742742,0.166489,8.057068,5.839844,-5.630931,1.455986,8.07592,-0.01268,-0.006714,0.018738,0.014081,0.012606,0.014135,0.337998,0.163509,-0.422963,-0.824696,-0.030451,-0.013344
578,97842034686590,0.166489,8.051086,5.876358,-5.625683,1.487816,8.094281,-0.014816,-0.00885,0.01767,0.017085,0.011729,0.013439,0.338032,0.163458,-0.422945,-0.824702,-0.030451,-0.013344
579,97842039630438,0.159897,8.02774,5.885925,-5.603914,1.502057,8.090378,-0.016953,-0.013107,0.01767,0.021583,0.012591,0.012127,0.338063,0.163396,-0.422918,-0.824715,-0.030451,-0.013344
580,97842044421697,0.162292,8.021744,5.884735,-5.600947,1.504146,8.08528,-0.016953,-0.010986,0.016617,0.020092,0.010859,0.012752,0.338093,0.16334,-0.422889,-0.824729,-0.030451,-0.013344
581,97842049426580,0.162292,8.031921,5.924835,-5.606942,1.531535,8.115321,-0.019073,-0.007782,0.013412,0.019332,0.006052,0.013923,0.338122,0.163286,-0.422843,-0.824752,-0.030451,-0.013345
582,97842054492498,0.167084,8.052277,5.955368,-5.623577,1.549103,8.143045,-0.015884,-0.009918,0.012344,0.018512,0.007408,0.010269,0.338148,0.163233,-0.422803,-0.824772,-0.030451,-0.013345
583,97842059344793,0.146729,8.032532,5.967926,-5.594749,1.558231,8.150455,-0.01268,-0.004593,0.011292,0.012489,0.005698,0.010997,0.338175,0.163193,-0.422763,-0.824789,-0.030451,-0.013347
584,97842064288641,0.115601,8.049286,5.982895,-5.583935,1.549539,8.186451,-0.007355,-0.001389,0.011292,0.006436,0.006607,0.009923,0.338197,0.163178,-0.422716,-0.824807,-0.03045,-0.013349
585,97842069263006,0.104828,8.037918,6.000259,-5.568169,1.56272,8.196078,-0.003098,0.003937,0.009155,-0.000362,0.004463,0.009427,0.3382,0.163171,-0.422667,-0.824833,-0.030449,-0.013352
586,97842074237371,0.095261,8.035522,6.003845,-5.559771,1.561897,8.202094,0.005432,0.003937,0.010223,-0.006469,0.008907,0.005322,0.338199,0.163173,-0.422634,-0.82485,-0.030448,-0.013357
587,97842079181219,0.082092,8.069031,6.002045,-5.57436,1.540885,8.227562,0.01181,0.008194,0.011292,-0.013993,0.010687,0.004909,0.338218,0.163205,-0.422612,-0.824847,-0.030447,-0.013363
588,97842084094549,0.107819,8.100159,5.969727,-5.615658,1.513204,8.211969,0.018204,0.01033,0.011292,-0.02007,0.012489,0.002611,0.338237,0.163243,-0.42262,-0.824827,-0.030445,-0.013368
589,97842089038397,0.07132,8.073822,5.954163,-5.572193,1.496941,8.206924,0.025665,0.01033,0.014481,-0.025374,0.018198,0.000345,0.338254,0.163297,-0.422639,-0.8248,-0.030444,-0.013374
590,97842093982244,0.076096,8.081009,5.949371,-5.581501,1.493191,8.204922,0.030991,0.011383,0.016617,-0.029894,0.021724,-0.000742,0.338275,0.163354,-0.422672,-0.824763,-0.030442,-0.01338
591,97842098895574,0.047974,8.049286,5.967926,-5.539907,1.510538,8.212015,0.037384,0.012451,0.018738,-0.03519,0.02568,-0.002423,0.338297,0.163421,-0.422701,-0.824726,-0.030441,-0.013386
592,97842103808904,0.059937,8.058258,5.899094,-5.556812,1.458076,8.169103,0.041641,0.014587,0.024063,-0.039643,0.030887,-0.000408,0.338328,0.163494,-0.422762,-0.824667,-0.03044,-0.013391
593,97842108752752,0.086868,8.053467,5.885925,-5.573808,1.462774,8.142663,0.042709,0.014587,0.026199,-0.040372,0.033064,0.000245,0.338367,0.163557,-0.422832,-0.824603,-0.03044,-0.013395
594,97842113666082,0.113205,8.022354,5.865585,-5.571954,1.472576,8.096968,0.044846,0.013519,0.030457,-0.041088,0.037848,0.000927,0.338417,0.163606,-0.422911,-0.824532,-0.030439,-0.013399
595,97842118640447,0.131165,7.997208,5.827866,-5.56836,1.462591,8.049273,0.044846,0.012451,0.033661,-0.040285,0.040885,0.002175,0.338476,0.163644,-0.423,-0.824455,-0.030439,-0.013403
596,97842123584295,0.168869,7.994812,5.787766,-5.594637,1.450032,8.002574,0.044846,0.013519,0.038986,-0.040933,0.044758,0.005922,0.33855,0.163671,-0.423105,-0.824365,-0.030438,-0.013406
597,97842128528143,0.21138,8.025345,5.76503,-5.646738,1.440258,7.982881,0.041641,0.012451,0.041107,-0.037845,0.045579,0.008313,0.338634,0.16368,-0.423223,-0.824268,-0.030438,-0.013409
598,97842133471990,0.247879,7.98703,5.718338,-5.64665,1.437047,7.912246,0.036316,0.009262,0.043243,-0.031756,0.046398,0.01065,0.338726,0.163666,-0.423343,-0.824171,-0.030437,-0.013412
599,97842138415838,0.267639,7.978058,5.678238,-5.654663,1.420098,7.872205,0.033127,0.005005,0.042175,-0.026508,0.045959,0.009288,0.338814,0.163639,-0.423472,-0.824075,-0.030436,-0.013414
600,97842143512274,0.292175,7.974472,5.618378,-5.669906,1.387028,7.82126,0.026733,-0.000336,0.038986,-0.018244,0.042902,0.007827,0.338895,0.163597,-0.42361,-0.823979,-0.030436,-0.013416
601,97842148395086,0.320312,7.936752,5.611801,-5.662835,1.41201,7.779815,0.016083,-0.002457,0.035782,-0.009177,0.036715,0.010622,0.338975,0.163534,-0.423722,-0.823901,-0.030435,-0.013419
602,97842153216863,0.335876,7.96669,5.612396,-5.694372,1.409437,7.788943,0.003296,-0.000336,0.033661,-0.00152,0.028759,0.017738,0.339093,0.163486,-0.423798,-0.823823,-0.030434,-0.013421
603,97842158099676,0.312531,7.977463,5.5681,-5.684529,1.36094,7.783014,-0.011627,0.000732,0.029388,0.008359,0.018593,0.024162,0.339138,0.163393,-0.423863,-0.823789,-0.030433,-0.013423
604,97842163043524,0.265244,7.959503,5.593842,-5.637235,1.370095,7.814065,-0.028671,0.003937,0.02301,0.018222,0.00495,0.031787,0.339205,0.163344,-0.423874,-0.823766,-0.030431,-0.013425
605,97842168017889,0.259262,7.922394,5.678833,-5.605209,1.450985,7.845822,-0.046768,0.006058,0.018738,0.029631,-0.006997,0.040597,0.339278,0.163278,-0.423812,-0.82378,-0.03043,-0.013427
606,97842172961736,0.24968,7.942139,5.738083,-5.610611,1.485437,7.898107,-0.058487,0.001801,0.018738,0.040996,-0.010196,0.044615,0.339351,0.163193,-0.423718,-0.823816,-0.030428,-0.013429
607,97842177905584,0.216766,7.930771,5.801529,-5.577443,1.525384,7.947782,-0.067017,-0.004593,0.018738,0.051566,-0.011182,0.0456,0.339419,0.163093,-0.423587,-0.823875,-0.030426,-0.01343
608,97842182849432,0.177261,7.92897,5.937408,-5.544713,1.616028,8.049688,-0.072342,-0.013107,0.01767,0.061301,-0.010816,0.042926,0.339478,0.162971,-0.42341,-0.823966,-0.030424,-0.013432
609,97842187793279,0.182037,7.92778,6.012222,-5.544882,1.675175,8.091827,-0.07341,-0.022705,0.015549,0.068723,-0.009061,0.036625,0.339527,0.162822,-0.423218,-0.824073,-0.030422,-0.013434
610,97842192737127,0.159302,7.922989,6.048737,-5.523405,1.693247,8.124728,-0.063812,-0.030151,0.013412,0.067002,-0.003693,0.025651,0.339558,0.162673,-0.423038,-0.824182,-0.03042,-0.013435
611,97842197680975,0.174866,7.938553,6.088837,-5.543197,1.722456,8.150534,-0.049973,-0.035477,0.013412,0.060804,0.004329,0.014831,0.339582,0.162517,-0.422886,-0.824281,-0.030417,-0.013437
612,97842202624822,0.199997,7.964294,6.139114,-5.576773,1.760281,8.18289,-0.035049,-0.031219,0.014481,0.047164,0.009736,0.009671,0.339612,0.16237,-0.422757,-0.824364,-0.030414,-0.013438
613,97842207538152,0.21138,7.973862,6.134323,-5.590781,1.755204,8.180436,-0.019073,-0.018433,0.012344,0.026761,0.009492,0.007049,0.339645,0.162264,-0.422655,-0.824424,-0.030411,-0.013441
614,97842212482000,0.225739,7.990631,6.152878,-5.611981,1.768004,8.193827,0.002228,-0.000336,0.010223,-0.001162,0.009331,0.004601,0.339674,0.162203,-0.422583,-0.82446,-0.030408,-0.013443
615,97842217425848,0.244888,8.028336,6.105591,-5.653496,1.722508,8.176995,0.022476,0.023102,0.011292,-0.031991,0.009102,0.007751,0.339733,0.162213,-0.422555,-0.824448,-0.030405,-0.013446
616,97842222369695,0.265839,8.022949,6.04454,-5.667173,1.685494,8.125088,0.040573,0.041214,0.009155,-0.05763,0.007577,0.007066,0.3398,0.162277,-0.422567,-0.824402,-0.030402,-0.01345
617,97842227313543,0.216766,8.044495,6.008636,-5.649851,1.628699,8.141938,0.055496,0.056137,0.008087,-0.078751,0.006888,0.006886,0.339864,0.162408,-0.422603,-0.824332,-0.030398,-0.013455
618,97842232257391,0.213165,8.030731,5.946976,-5.641404,1.585393,8.097269,0.064011,0.066788,0.00383,-0.092365,0.002673,0.005863,0.339924,0.162577,-0.42266,-0.824245,-0.030388,-0.013463
619,97842237170721,0.201202,8.088196,5.886536,-5.676833,1.510836,8.099486,0.069336,0.069977,0.001694,-0.098445,0.001891,0.003481,0.339973,0.162774,-0.422749,-0.82414,-0.030377,-0.013473
620,97842242114568,0.160492,8.083405,5.831467,-5.648225,1.45413,8.084315,0.067215,0.067841,0.001694,-0.095437,0.001873,0.003374,0.340011,0.162984,-0.422844,-0.824033,-0.030366,-0.013483
621,97842247119451,0.121597,8.107346,5.742874,-5.641547,1.359344,8.065332,0.058685,0.060394,0.000626,-0.084154,0.000466,0.003096,0.340032,0.1632,-0.422952,-0.823927,-0.030354,-0.013495
622,97842252063299,0.117401,8.091187,5.740479,-5.629522,1.36489,8.0548,0.048035,0.047607,0.00383,-0.067545,0.003812,0.003398,0.340051,0.163375,-0.423045,-0.823837,-0.030341,-0.013507
623,97842256976629,0.120392,8.080414,5.707565,-5.626808,1.346448,8.025579,0.035248,0.0327,0.007019,-0.047927,0.007119,0.003647,0.340102,0.163522,-0.423117,-0.823749,-0.030328,-0.013519
624,97842261981512,0.115601,8.095367,5.659073,-5.635091,1.300643,8.007964,0.022476,0.015656,0.009155,-0.026845,0.010454,0.002032,0.340071,0.163587,-0.423201,-0.823706,-0.030314,-0.01353
625,97842266925359,0.106033,8.083405,5.671646,-5.619998,1.313257,8.013185,0.007553,0.001801,0.014481,-0.006394,0.014155,0.005362,0.340075,0.163632,-0.423269,-0.82366,-0.030299,-0.013542
626,97842271869207,0.124588,8.08519,5.640518,-5.63473,1.296499,7.985621,-0.007355,-0.013107,0.018738,0.014763,0.017428,0.007437,0.34008,0.163627,-0.423332,-0.823627,-0.030284,-0.013553
627,97842276813055,0.183243,8.103745,5.644714,-5.688543,1.318225,7.966794,-0.018005,-0.022705,0.020874,0.029128,0.0186,0.009001,0.340092,0.163573,-0.423392,-0.823602,-0.030267,-0.013565
628,97842281756902,0.209579,8.080414,5.70636,-5.688452,1.389347,7.975638,-0.027603,-0.030151,0.024063,0.041258,0.02018,0.011855,0.340115,0.163474,-0.423422,-0.823597,-0.030249,-0.013578
629,97842286670233,0.243103,8.070236,5.72731,-5.703151,1.424917,7.964514,-0.036118,-0.033356,0.026199,0.049634,0.01962,0.01597,0.340149,0.163346,-0.423435,-0.823601,-0.030229,-0.013591
630,97842291583563,0.245483,8.06604,5.751251,-5.699806,1.44701,7.976,-0.038254,-0.031219,0.024063,0.049634,0.016106,0.01715,0.340184,0.16322,-0.423434,-0.823613,-0.030207,-0.013606
631,97842296496893,0.241302,8.06604,5.778793,-5.694852,1.467344,7.995577,-0.038254,-0.025894,0.02301,0.045898,0.013062,0.019648,0.340222,0.163105,-0.42342,-0.823627,-0.030182,-0.013621
632,97842301410223,0.209579,8.051682,5.80513,-5.66075,1.480697,8.020999,-0.033997,-0.016312,0.019806,0.0361,0.008335,0.021011,0.340258,0.163024,-0.42339,-0.823643,-0.030154,-0.013637
633,97842306323553,0.216156,8.0457,5.894913,-5.658838,1.557624,8.0673,-0.032928,-0.010986,0.019806,0.031617,0.006596,0.023538,0.340305,0.162943,-0.423333,-0.823669,-0.030123,-0.013656
634,97842311267400,0.221542,8.038513,5.921249,-5.656738,1.583256,8.076049,-0.028671,-0.003525,0.019806,0.023362,0.005329,0.025545,0.340361,0.162875,-0.42327,-0.823692,-0.030089,-0.013677
635,97842316180731,0.194016,8.021149,5.942795,-5.624514,1.59528,8.094026,-0.02121,0.003937,0.019806,0.012813,0.005418,0.025771,0.340419,0.162834,-0.423203,-0.823711,-0.030054,-0.013699
636,97842321124578,0.194611,8.031326,5.949982,-5.63233,1.596563,8.103715,-0.013748,0.013519,0.01767,0.000737,0.002916,0.02598,0.340479,0.162822,-0.423143,-0.823719,-0.030019,-0.013724
637,97842326068426,0.210175,8.010376,5.987686,-5.628679,1.6416,8.104677,-0.007355,0.019913,0.016617,-0.008325,0.002146,0.025551,0.340547,0.162818,-0.423078,-0.823725,-0.029985,-0.013751
638,97842331012274,0.211975,8.022354,6.002045,-5.638648,1.648807,8.118791,0.002228,0.019913,0.016617,-0.015179,0.006202,0.020218,0.340611,0.162821,-0.423032,-0.823722,-0.029952,-0.013781
639,97842335956121,0.228729,8.04808,5.986481,-5.669493,1.633024,8.11492,0.009689,0.020981,0.014481,-0.021303,0.007198,0.015432,0.34067,0.162833,-0.42301,-0.823706,-0.029922,-0.013806
640,97842340899969,0.221542,8.019363,5.946976,-5.645687,1.610401,8.078279,0.016083,0.020981,0.013412,-0.025895,0.009045,0.011242,0.340722,0.162856,-0.423006,-0.823682,-0.029893,-0.013833
641,97842345721746,0.259262,7.986435,5.90329,-5.651005,1.605472,8.011729,0.02034,0.023102,0.011292,-0.030463,0.008269,0.008864,0.340775,0.162877,-0.423018,-0.82365,-0.029867,-0.013863
642,97842350665594,0.261047,7.996613,5.908676,-5.660505,1.607736,8.018742,0.023529,0.025238,0.008087,-0.0343,0.00616,0.006446,0.340867,0.162932,-0.423025,-0.823597,-0.029843,-0.013896
